key_resp.keys,key_resp.rt,key_resp_16.keys,key_resp_16.rt,key_resp_2.keys,key_resp_2.rt,X Scale,ratio_pxpermm,screen_size_x,screen_size_y,testsize,key_resp_3.keys,key_resp_3.rt,key_resp_4.keys,key_resp_4.rt,line_size,key_resp_5.keys,key_resp_5.rt,key_resp_6.keys,key_resp_6.rt,key_resp_8.keys,key_resp_8.rt,key_resp_7.keys,key_resp_7.rt,key_resp_12.keys,key_resp_12.rt,key_resp_11.keys,key_resp_11.rt,key_resp_18.keys,key_resp_18.rt,key_resp_21.keys,key_resp_21.rt,key_resp_13.keys,key_resp_13.rt,key_resp_19.keys,key_resp_19.rt,ballposx,viewer_distance,trials.thisRepN,trials.thisTrialN,trials.thisN,trials.thisIndex,trials.ran,participant,session,date,expName,psychopyVersion,OS,frameRate,study_id,viewerdistancecm,DVA_to_distance,radius_F,radius_P,r_F,R_P,key_resp_20.keys,key_resp_20.rt,key_resp_14.keys,key_resp_14.rt,key_resp_15.keys,key_resp_15.rt,key_resp_17.keys,key_resp_17.rt,key_resp_9.keys,key_resp_9.rt,key_resp_10.keys,key_resp_10.rt,Flower1,Ecc,Flower_2,similarity,response_time,mouse_5.x,mouse_5.y,mouse_5.leftButton,mouse_5.midButton,mouse_5.rightButton,mouse_5.clicked_name,mouse_10.x,mouse_10.y,mouse_10.leftButton,mouse_10.midButton,mouse_10.rightButton,mouse_10.clicked_name,mouse_7.x,mouse_7.y,mouse_7.leftButton,mouse_7.midButton,mouse_7.rightButton,catchnumberprac,mouse_6.x,mouse_6.y,mouse_6.leftButton,mouse_6.midButton,mouse_6.rightButton,duringprac.thisRepN,duringprac.thisTrialN,duringprac.thisN,duringprac.thisIndex,duringprac.ran,mouse_7.clicked_name,catchprac,mouse_6.clicked_name,key_resp_22.keys,key_resp_22.rt,mouse.x,mouse.y,mouse.leftButton,mouse.midButton,mouse.rightButton,mouse.clicked_name,Flower2,trialnumber,mouse_2.x,mouse_2.y,mouse_2.leftButton,mouse_2.midButton,mouse_2.rightButton,mouse_2.clicked_name,mouse_3.x,mouse_3.y,mouse_3.leftButton,mouse_3.midButton,mouse_3.rightButton,mouse_3.clicked_name,catchresponse,catchnumber,catchtrialorder,mouse_11.x,mouse_11.y,mouse_11.leftButton,mouse_11.midButton,mouse_11.rightButton,mouse_11.clicked_name,trials_2.thisRepN,trials_2.thisTrialN,trials_2.thisN,trials_2.thisIndex,trials_2.ran,trials_3.thisRepN,trials_3.thisTrialN,trials_3.thisN,trials_3.thisIndex,trials_3.ran,answer1,rt1,answer2,rt2,answer3,rt3,answer4,rt4,answer5,rt5,answer6,rt6,answer8,rt8,answer7,rt7
space,3.933,space,16.538,space,13.437,37.6,3.76,340.4255319,191.4893617,1280,space,65.956,space,13.193,75.2,space,15.78,space,8.718,space,2.898,space,5.139,space,8.574,space,10.846,space,17.305,space,13.469,space,25.84,return,0.51,418.56,103.5121689,0,0,0,0,1,57cb267a648ff4000166658d,5fe19436509c7e41d9ff4071,2020-12-22_08h37.58.426,FlowerSimilarity_Experiment,2020.1.2,Win32,60,5fe17d4a51f3a9c1a60f9869,,,,,,,,,,,,,,,,,,,,,,,,,,,,,,,,,,,,,,,,,,,,,,,,,,,,,,,,,,,,,,,,,,,,,,,,,,,,,,,,,,,,,,,,,,,,,,,,,,,,,,,,,,,,,,,
,,,,,,,,,,,,,,,,,,,,,,,,,,,,,,,,,,return,3.413,84.48,473.603622,1,0,1,0,1,57cb267a648ff4000166658d,5fe19436509c7e41d9ff4071,2020-12-22_08h37.58.426,FlowerSimilarity_Experiment,2020.1.2,Win32,60,5fe17d4a51f3a9c1a60f9869,,,,,,,,,,,,,,,,,,,,,,,,,,,,,,,,,,,,,,,,,,,,,,,,,,,,,,,,,,,,,,,,,,,,,,,,,,,,,,,,,,,,,,,,,,,,,,,,,,,,,,,,,,,,,,,
,,,,,,,,,,,,,,,,,,,,,,,,,,,,,,,,,,return,3.513,72.96,486.3653962,2,0,2,0,1,57cb267a648ff4000166658d,5fe19436509c7e41d9ff4071,2020-12-22_08h37.58.426,FlowerSimilarity_Experiment,2020.1.2,Win32,60,5fe17d4a51f3a9c1a60f9869,,,,,,,,,,,,,,,,,,,,,,,,,,,,,,,,,,,,,,,,,,,,,,,,,,,,,,,,,,,,,,,,,,,,,,,,,,,,,,,,,,,,,,,,,,,,,,,,,,,,,,,,,,,,,,,
,,,,,,,,,,,,,,,,,,,,,,,,,,,,,,,,,,return,3.284,99.84,456.587923,3,0,3,0,1,57cb267a648ff4000166658d,5fe19436509c7e41d9ff4071,2020-12-22_08h37.58.426,FlowerSimilarity_Experiment,2020.1.2,Win32,60,5fe17d4a51f3a9c1a60f9869,,,,,,,,,,,,,,,,,,,,,,,,,,,,,,,,,,,,,,,,,,,,,,,,,,,,,,,,,,,,,,,,,,,,,,,,,,,,,,,,,,,,,,,,,,,,,,,,,,,,,,,,,,,,,,,
,,,,,,,,,,,,,,,,,,,,,,,,,,,,,,,,,,return,3.799,40.32,522.5237566,4,0,4,0,1,57cb267a648ff4000166658d,5fe19436509c7e41d9ff4071,2020-12-22_08h37.58.426,FlowerSimilarity_Experiment,2020.1.2,Win32,60,5fe17d4a51f3a9c1a60f9869,,,,,,,,,,,,,,,,,,,,,,,,,,,,,,,,,,,,,,,,,,,,,,,,,,,,,,,,,,,,,,,,,,,,,,,,,,,,,,,,,,,,,,,,,,,,,,,,,,,,,,,,,,,,,,,
,,,,,,,,,,,,,,,,,,,,,,,,,,,,,,,,,,,,,,,,,,,57cb267a648ff4000166658d,5fe19436509c7e41d9ff4071,2020-12-22_08h37.58.426,FlowerSimilarity_Experiment,2020.1.2,Win32,60,5fe17d4a51f3a9c1a60f9869,41,7.156574061,40.3630777,269.0871847,26.90871847,121.0892331,space,4.244,space,17.213,space,44.095,space,24.331,space,16.382,space,6.868,5,FF,1,0,16.549,-31,80,1,0,0,response7disk_5,9,3,1,0,0,rectangle_8,9,3,1,0,0,0,9,3,1,0,0,0,0,0,0,1,,,,,,,,,,,,,,,,,,,,,,,,,,,,,,,,,,,,,,,,,,,,,,,,,,,,,,,,,,,,
,,,,,,,,,,,,,,,,,,,,,,,,,,,,,,,,,,,,,,,,,,,57cb267a648ff4000166658d,5fe19436509c7e41d9ff4071,2020-12-22_08h37.58.426,FlowerSimilarity_Experiment,2020.1.2,Win32,60,5fe17d4a51f3a9c1a60f9869,,,,,,,,,,,,,,,,,,,1,PF,3,6,8.084,93,43,1,0,0,response1disk_5,11,1,1,0,0,rectangle_8,-35,79,1,0,0,0,7,-1,1,0,0,0,1,1,1,1,response7disk_7,0,rectangle_4,,,,,,,,,,,,,,,,,,,,,,,,,,,,,,,,,,,,,,,,,,,,,,,,,,,,,,,,,
,,,,,,,,,,,,,,,,,,,,,,,,,,,,,,,,,,,,,,,,,,,57cb267a648ff4000166658d,5fe19436509c7e41d9ff4071,2020-12-22_08h37.58.426,FlowerSimilarity_Experiment,2020.1.2,Win32,60,5fe17d4a51f3a9c1a60f9869,,,,,,,,,,,,,,,,,,,7,FF,8,5,7.518,66,-40,1,0,0,response3disk_5,-7,-4,1,0,0,rectangle_8,-7,-4,1,0,0,0,-7,-4,1,0,0,0,2,2,3,1,,,,,,,,,,,,,,,,,,,,,,,,,,,,,,,,,,,,,,,,,,,,,,,,,,,,,,,,,,,,
,,,,,,,,,,,,,,,,,,,,,,,,,,,,,,,,,,,,,,,,,,,57cb267a648ff4000166658d,5fe19436509c7e41d9ff4071,2020-12-22_08h37.58.426,FlowerSimilarity_Experiment,2020.1.2,Win32,60,5fe17d4a51f3a9c1a60f9869,,,,,,,,,,,,,,,,,,,5,PF,3,4,5.685,35,-99,1,0,0,response3disk_5,-15,1,1,0,0,rectangle_8,-15,1,1,0,0,0,-15,1,1,0,0,0,3,3,6,1,,,,,,,,,,,,,,,,,,,,,,,,,,,,,,,,,,,,,,,,,,,,,,,,,,,,,,,,,,,,
,,,,,,,,,,,,,,,,,,,,,,,,,,,,,,,,,,,,,,,,,,,57cb267a648ff4000166658d,5fe19436509c7e41d9ff4071,2020-12-22_08h37.58.426,FlowerSimilarity_Experiment,2020.1.2,Win32,60,5fe17d4a51f3a9c1a60f9869,,,,,,,,,,,,,,,,,,,7,PF,8,4,6.533,53,-103,1,0,0,response3disk_5,7,5,1,0,0,rectangle_8,7,5,1,0,0,0,7,5,1,0,0,0,4,4,2,1,,,,,,,,,,,,,,,,,,,,,,,,,,,,,,,,,,,,,,,,,,,,,,,,,,,,,,,,,,,,
,,,,,,,,,,,,,,,,,,,,,,,,,,,,,,,,,,,,,,,,,,,57cb267a648ff4000166658d,5fe19436509c7e41d9ff4071,2020-12-22_08h37.58.426,FlowerSimilarity_Experiment,2020.1.2,Win32,60,5fe17d4a51f3a9c1a60f9869,,,,,,,,,,,,,,,,,,,7,PF,1,7,4.95,57,84,1,0,0,response1disk_5,6,-6,1,0,0,rectangle_8,-24,75,1,0,0,0,-8,2,1,0,0,0,5,5,4,1,response7disk_7,0,rectangle_4,,,,,,,,,,,,,,,,,,,,,,,,,,,,,,,,,,,,,,,,,,,,,,,,,,,,,,,,,
,,,,,,,,,,,,,,,,,,,,,,,,,,,,,,,,,,,,,,,,,,,57cb267a648ff4000166658d,5fe19436509c7e41d9ff4071,2020-12-22_08h37.58.426,FlowerSimilarity_Experiment,2020.1.2,Win32,60,5fe17d4a51f3a9c1a60f9869,,,,,,,,,,,,,,,,,,,5,FF,6,3,3.217,-51,-87,1,0,0,response5disk_5,17,14,1,0,0,rectangle_8,17,14,1,0,0,0,17,14,1,0,0,0,6,6,5,1,,6,,,,,,,,,,,,,,,,,,,,,,,,,,,,,,,,,,,,,,,,,,,,,,,,,,,,,,,,,,
,,,,,,,,,,,,,,,,,,,,,,,,,,,,,,,,,,,,,,,,,,,57cb267a648ff4000166658d,5fe19436509c7e41d9ff4071,2020-12-22_08h37.58.426,FlowerSimilarity_Experiment,2020.1.2,Win32,60,5fe17d4a51f3a9c1a60f9869,,,,,,,,,,,,,,,,,,,2,PF,,5,8.717,,,,,,,,,,,,,,,,,,,,,,,,,,,,,,,,space,15.132,87,-33,1,0,0,response3disk,6,1,-20,3,1,0,0,rectangle,39,-97,1,0,0,response3disk_3,4,4,"[183,71,266,47,300,1,258,230,220,43,241,19,177,157,157,211,47,295,263,268]",-13,4,1,0,0,rectangle,0,0,0,113,1,,,,,,,,,,,,,,,,,,,,,
,,,,,,,,,,,,,,,,,,,,,,,,,,,,,,,,,,,,,,,,,,,57cb267a648ff4000166658d,5fe19436509c7e41d9ff4071,2020-12-22_08h37.58.426,FlowerSimilarity_Experiment,2020.1.2,Win32,60,5fe17d4a51f3a9c1a60f9869,,,,,,,,,,,,,,,,,,,5,FF,,3,8.866,,,,,,,,,,,,,,,,,,,,,,,,,,,,,,,,,,-29,-79,1,0,0,response5disk,5,2,15,-1,1,0,0,rectangle,15,-1,1,0,0,,4,5,"[183,71,266,47,300,1,258,230,220,43,241,19,177,157,157,211,47,295,263,268]",15,-1,1,0,0,,0,1,1,19,1,,,,,,,,,,,,,,,,,,,,,
,,,,,,,,,,,,,,,,,,,,,,,,,,,,,,,,,,,,,,,,,,,57cb267a648ff4000166658d,5fe19436509c7e41d9ff4071,2020-12-22_08h37.58.426,FlowerSimilarity_Experiment,2020.1.2,Win32,60,5fe17d4a51f3a9c1a60f9869,,,,,,,,,,,,,,,,,,,6,FF,,7,5.449,,,,,,,,,,,,,,,,,,,,,,,,,,,,,,,,,,57,79,1,0,0,response1disk,2,3,4,-2,1,0,0,rectangle,4,-2,1,0,0,,4,5,"[183,71,266,47,300,1,258,230,220,43,241,19,177,157,157,211,47,295,263,268]",4,-2,1,0,0,,0,2,2,112,1,,,,,,,,,,,,,,,,,,,,,
,,,,,,,,,,,,,,,,,,,,,,,,,,,,,,,,,,,,,,,,,,,57cb267a648ff4000166658d,5fe19436509c7e41d9ff4071,2020-12-22_08h37.58.426,FlowerSimilarity_Experiment,2020.1.2,Win32,60,5fe17d4a51f3a9c1a60f9869,,,,,,,,,,,,,,,,,,,8,PF,,7,3.65,,,,,,,,,,,,,,,,,,,,,,,,,,,,,,,,,,36,71,1,0,0,response1disk,2,4,-1,5,1,0,0,rectangle,-1,5,1,0,0,,4,3,"[183,71,266,47,300,1,258,230,220,43,241,19,177,157,157,211,47,295,263,268]",-1,5,1,0,0,,0,3,3,83,1,,,,,,,,,,,,,,,,,,,,,
,,,,,,,,,,,,,,,,,,,,,,,,,,,,,,,,,,,,,,,,,,,57cb267a648ff4000166658d,5fe19436509c7e41d9ff4071,2020-12-22_08h37.58.426,FlowerSimilarity_Experiment,2020.1.2,Win32,60,5fe17d4a51f3a9c1a60f9869,,,,,,,,,,,,,,,,,,,3,FF,,0,2.549,,,,,,,,,,,,,,,,,,,,,,,,,,,,,,,,,,-33,67,1,0,0,response7disk,7,5,13,-3,1,0,0,rectangle,13,-3,1,0,0,,4,4,"[183,71,266,47,300,1,258,230,220,43,241,19,177,157,157,211,47,295,263,268]",13,-3,1,0,0,,0,4,4,118,1,,,,,,,,,,,,,,,,,,,,,
,,,,,,,,,,,,,,,,,,,,,,,,,,,,,,,,,,,,,,,,,,,57cb267a648ff4000166658d,5fe19436509c7e41d9ff4071,2020-12-22_08h37.58.426,FlowerSimilarity_Experiment,2020.1.2,Win32,60,5fe17d4a51f3a9c1a60f9869,,,,,,,,,,,,,,,,,,,7,PF,,5,3.333,,,,,,,,,,,,,,,,,,,,,,,,,,,,,,,,,,96,-45,1,0,0,response3disk,8,6,-6,0,1,0,0,rectangle,-6,0,1,0,0,,4,1,"[183,71,266,47,300,1,258,230,220,43,241,19,177,157,157,211,47,295,263,268]",-6,0,1,0,0,,0,5,5,140,1,,,,,,,,,,,,,,,,,,,,,
,,,,,,,,,,,,,,,,,,,,,,,,,,,,,,,,,,,,,,,,,,,57cb267a648ff4000166658d,5fe19436509c7e41d9ff4071,2020-12-22_08h37.58.426,FlowerSimilarity_Experiment,2020.1.2,Win32,60,5fe17d4a51f3a9c1a60f9869,,,,,,,,,,,,,,,,,,,2,FF,,7,2.5,,,,,,,,,,,,,,,,,,,,,,,,,,,,,,,,,,53,77,1,0,0,response1disk,8,7,9,4,1,0,0,rectangle,9,4,1,0,0,,4,5,"[183,71,266,47,300,1,258,230,220,43,241,19,177,157,157,211,47,295,263,268]",9,4,1,0,0,,0,6,6,62,1,,,,,,,,,,,,,,,,,,,,,
,,,,,,,,,,,,,,,,,,,,,,,,,,,,,,,,,,,,,,,,,,,57cb267a648ff4000166658d,5fe19436509c7e41d9ff4071,2020-12-22_08h37.58.426,FlowerSimilarity_Experiment,2020.1.2,Win32,60,5fe17d4a51f3a9c1a60f9869,,,,,,,,,,,,,,,,,,,2,PF,,7,1.916,,,,,,,,,,,,,,,,,,,,,,,,,,,,,,,,,,58,79,1,0,0,response1disk,9,8,7,5,1,0,0,rectangle,7,5,1,0,0,,4,3,"[183,71,266,47,300,1,258,230,220,43,241,19,177,157,157,211,47,295,263,268]",7,5,1,0,0,,0,7,7,39,1,,,,,,,,,,,,,,,,,,,,,
,,,,,,,,,,,,,,,,,,,,,,,,,,,,,,,,,,,,,,,,,,,57cb267a648ff4000166658d,5fe19436509c7e41d9ff4071,2020-12-22_08h37.58.426,FlowerSimilarity_Experiment,2020.1.2,Win32,60,5fe17d4a51f3a9c1a60f9869,,,,,,,,,,,,,,,,,,,5,PF,,5,2.8,,,,,,,,,,,,,,,,,,,,,,,,,,,,,,,,,,74,-36,1,0,0,response3disk,2,9,-1,4,1,0,0,rectangle,-1,4,1,0,0,,4,3,"[183,71,266,47,300,1,258,230,220,43,241,19,177,157,157,211,47,295,263,268]",-1,4,1,0,0,,0,8,8,129,1,,,,,,,,,,,,,,,,,,,,,
,,,,,,,,,,,,,,,,,,,,,,,,,,,,,,,,,,,,,,,,,,,57cb267a648ff4000166658d,5fe19436509c7e41d9ff4071,2020-12-22_08h37.58.426,FlowerSimilarity_Experiment,2020.1.2,Win32,60,5fe17d4a51f3a9c1a60f9869,,,,,,,,,,,,,,,,,,,3,FF,,6,3.201,,,,,,,,,,,,,,,,,,,,,,,,,,,,,,,,,,101,47,1,0,0,response1disk,5,10,-10,4,1,0,0,rectangle,-10,4,1,0,0,,4,5,"[183,71,266,47,300,1,258,230,220,43,241,19,177,157,157,211,47,295,263,268]",-10,4,1,0,0,,0,9,9,101,1,,,,,,,,,,,,,,,,,,,,,
,,,,,,,,,,,,,,,,,,,,,,,,,,,,,,,,,,,,,,,,,,,57cb267a648ff4000166658d,5fe19436509c7e41d9ff4071,2020-12-22_08h37.58.426,FlowerSimilarity_Experiment,2020.1.2,Win32,60,5fe17d4a51f3a9c1a60f9869,,,,,,,,,,,,,,,,,,,6,PF,,7,3.318,,,,,,,,,,,,,,,,,,,,,,,,,,,,,,,,,,35,79,1,0,0,response1disk,3,11,-7,-1,1,0,0,rectangle,-7,-1,1,0,0,,4,5,"[183,71,266,47,300,1,258,230,220,43,241,19,177,157,157,211,47,295,263,268]",-7,-1,1,0,0,,0,10,10,26,1,,,,,,,,,,,,,,,,,,,,,
,,,,,,,,,,,,,,,,,,,,,,,,,,,,,,,,,,,,,,,,,,,57cb267a648ff4000166658d,5fe19436509c7e41d9ff4071,2020-12-22_08h37.58.426,FlowerSimilarity_Experiment,2020.1.2,Win32,60,5fe17d4a51f3a9c1a60f9869,,,,,,,,,,,,,,,,,,,1,FF,,7,2.216,,,,,,,,,,,,,,,,,,,,,,,,,,,,,,,,,,43,81,1,0,0,response1disk,8,12,1,4,1,0,0,rectangle,1,4,1,0,0,,4,0,"[183,71,266,47,300,1,258,230,220,43,241,19,177,157,157,211,47,295,263,268]",1,4,1,0,0,,0,11,11,27,1,,,,,,,,,,,,,,,,,,,,,
,,,,,,,,,,,,,,,,,,,,,,,,,,,,,,,,,,,,,,,,,,,57cb267a648ff4000166658d,5fe19436509c7e41d9ff4071,2020-12-22_08h37.58.426,FlowerSimilarity_Experiment,2020.1.2,Win32,60,5fe17d4a51f3a9c1a60f9869,,,,,,,,,,,,,,,,,,,3,FF,,7,1.567,,,,,,,,,,,,,,,,,,,,,,,,,,,,,,,,,,40,85,1,0,0,response1disk,1,13,3,1,1,0,0,rectangle,3,1,1,0,0,,4,2,"[183,71,266,47,300,1,258,230,220,43,241,19,177,157,157,211,47,295,263,268]",3,1,1,0,0,,0,12,12,125,1,,,,,,,,,,,,,,,,,,,,,
,,,,,,,,,,,,,,,,,,,,,,,,,,,,,,,,,,,,,,,,,,,57cb267a648ff4000166658d,5fe19436509c7e41d9ff4071,2020-12-22_08h37.58.426,FlowerSimilarity_Experiment,2020.1.2,Win32,60,5fe17d4a51f3a9c1a60f9869,,,,,,,,,,,,,,,,,,,6,FF,,0,1.999,,,,,,,,,,,,,,,,,,,,,,,,,,,,,,,,,,-40,88,1,0,0,response7disk,6,14,8,1,1,0,0,rectangle,8,1,1,0,0,,4,0,"[183,71,266,47,300,1,258,230,220,43,241,19,177,157,157,211,47,295,263,268]",8,1,1,0,0,,0,13,13,91,1,,,,,,,,,,,,,,,,,,,,,
,,,,,,,,,,,,,,,,,,,,,,,,,,,,,,,,,,,,,,,,,,,57cb267a648ff4000166658d,5fe19436509c7e41d9ff4071,2020-12-22_08h37.58.426,FlowerSimilarity_Experiment,2020.1.2,Win32,60,5fe17d4a51f3a9c1a60f9869,,,,,,,,,,,,,,,,,,,5,FF,,7,5.733,,,,,,,,,,,,,,,,,,,,,,,,,,,,,,,,,,44,79,1,0,0,response1disk,1,15,-1,-2,1,0,0,rectangle,-1,-2,1,0,0,,4,3,"[183,71,266,47,300,1,258,230,220,43,241,19,177,157,157,211,47,295,263,268]",-1,-2,1,0,0,,0,14,14,131,1,,,,,,,,,,,,,,,,,,,,,
,,,,,,,,,,,,,,,,,,,,,,,,,,,,,,,,,,,,,,,,,,,57cb267a648ff4000166658d,5fe19436509c7e41d9ff4071,2020-12-22_08h37.58.426,FlowerSimilarity_Experiment,2020.1.2,Win32,60,5fe17d4a51f3a9c1a60f9869,,,,,,,,,,,,,,,,,,,7,FF,,5,2.617,,,,,,,,,,,,,,,,,,,,,,,,,,,,,,,,,,72,-31,1,0,0,response3disk,4,16,-1,-6,1,0,0,rectangle,-1,-6,1,0,0,,4,1,"[183,71,266,47,300,1,258,230,220,43,241,19,177,157,157,211,47,295,263,268]",-1,-6,1,0,0,,0,15,15,158,1,,,,,,,,,,,,,,,,,,,,,
,,,,,,,,,,,,,,,,,,,,,,,,,,,,,,,,,,,,,,,,,,,57cb267a648ff4000166658d,5fe19436509c7e41d9ff4071,2020-12-22_08h37.58.426,FlowerSimilarity_Experiment,2020.1.2,Win32,60,5fe17d4a51f3a9c1a60f9869,,,,,,,,,,,,,,,,,,,4,FF,,7,2.101,,,,,,,,,,,,,,,,,,,,,,,,,,,,,,,,,,47,79,1,0,0,response1disk,5,17,7,2,1,0,0,rectangle,7,2,1,0,0,,4,6,"[183,71,266,47,300,1,258,230,220,43,241,19,177,157,157,211,47,295,263,268]",7,2,1,0,0,,0,16,16,116,1,,,,,,,,,,,,,,,,,,,,,
,,,,,,,,,,,,,,,,,,,,,,,,,,,,,,,,,,,,,,,,,,,57cb267a648ff4000166658d,5fe19436509c7e41d9ff4071,2020-12-22_08h37.58.426,FlowerSimilarity_Experiment,2020.1.2,Win32,60,5fe17d4a51f3a9c1a60f9869,,,,,,,,,,,,,,,,,,,4,FF,,7,1.534,,,,,,,,,,,,,,,,,,,,,,,,,,,,,,,,,,28,60,1,0,0,response1disk,8,18,7,-10,1,0,0,rectangle,7,-10,1,0,0,,4,6,"[183,71,266,47,300,1,258,230,220,43,241,19,177,157,157,211,47,295,263,268]",7,-10,1,0,0,,0,17,17,35,1,,,,,,,,,,,,,,,,,,,,,
,,,,,,,,,,,,,,,,,,,,,,,,,,,,,,,,,,,,,,,,,,,57cb267a648ff4000166658d,5fe19436509c7e41d9ff4071,2020-12-22_08h37.58.426,FlowerSimilarity_Experiment,2020.1.2,Win32,60,5fe17d4a51f3a9c1a60f9869,,,,,,,,,,,,,,,,,,,6,FF,,7,1.782,,,,,,,,,,,,,,,,,,,,,,,,,,,,,,,,,,40,83,1,0,0,response1disk,4,19,7,-1,1,0,0,rectangle,-69,39,1,0,0,response7disk_3,1,1,"[183,71,266,47,300,1,258,230,220,43,241,19,177,157,157,211,47,295,263,268]",21,-1,1,0,0,rectangle,0,18,18,56,1,,,,,,,,,,,,,,,,,,,,,
,,,,,,,,,,,,,,,,,,,,,,,,,,,,,,,,,,,,,,,,,,,57cb267a648ff4000166658d,5fe19436509c7e41d9ff4071,2020-12-22_08h37.58.426,FlowerSimilarity_Experiment,2020.1.2,Win32,60,5fe17d4a51f3a9c1a60f9869,,,,,,,,,,,,,,,,,,,3,FF,,6,4.233,,,,,,,,,,,,,,,,,,,,,,,,,,,,,,,,,,84,34,1,0,0,response1disk,8,20,10,2,1,0,0,rectangle,10,2,1,0,0,,1,2,"[183,71,266,47,300,1,258,230,220,43,241,19,177,157,157,211,47,295,263,268]",10,2,1,0,0,,0,19,19,44,1,,,,,,,,,,,,,,,,,,,,,
,,,,,,,,,,,,,,,,,,,,,,,,,,,,,,,,,,,,,,,,,,,57cb267a648ff4000166658d,5fe19436509c7e41d9ff4071,2020-12-22_08h37.58.426,FlowerSimilarity_Experiment,2020.1.2,Win32,60,5fe17d4a51f3a9c1a60f9869,,,,,,,,,,,,,,,,,,,4,FF,,7,4.933,,,,,,,,,,,,,,,,,,,,,,,,,,,,,,,,,,39,59,1,0,0,response1disk,3,21,7,3,1,0,0,rectangle,7,3,1,0,0,,1,0,"[183,71,266,47,300,1,258,230,220,43,241,19,177,157,157,211,47,295,263,268]",7,3,1,0,0,,0,20,20,77,1,,,,,,,,,,,,,,,,,,,,,
,,,,,,,,,,,,,,,,,,,,,,,,,,,,,,,,,,,,,,,,,,,57cb267a648ff4000166658d,5fe19436509c7e41d9ff4071,2020-12-22_08h37.58.426,FlowerSimilarity_Experiment,2020.1.2,Win32,60,5fe17d4a51f3a9c1a60f9869,,,,,,,,,,,,,,,,,,,6,PF,,1,2.45,,,,,,,,,,,,,,,,,,,,,,,,,,,,,,,,,,-79,50,1,0,0,response7disk,6,22,9,3,1,0,0,rectangle,9,3,1,0,0,,1,4,"[183,71,266,47,300,1,258,230,220,43,241,19,177,157,157,211,47,295,263,268]",9,3,1,0,0,,0,21,21,0,1,,,,,,,,,,,,,,,,,,,,,
,,,,,,,,,,,,,,,,,,,,,,,,,,,,,,,,,,,,,,,,,,,57cb267a648ff4000166658d,5fe19436509c7e41d9ff4071,2020-12-22_08h37.58.426,FlowerSimilarity_Experiment,2020.1.2,Win32,60,5fe17d4a51f3a9c1a60f9869,,,,,,,,,,,,,,,,,,,5,PF,,6,3.383,,,,,,,,,,,,,,,,,,,,,,,,,,,,,,,,,,82,41,1,0,0,response1disk,6,23,1,-7,1,0,0,rectangle,1,-7,1,0,0,,1,3,"[183,71,266,47,300,1,258,230,220,43,241,19,177,157,157,211,47,295,263,268]",1,-7,1,0,0,,0,22,22,103,1,,,,,,,,,,,,,,,,,,,,,
,,,,,,,,,,,,,,,,,,,,,,,,,,,,,,,,,,,,,,,,,,,57cb267a648ff4000166658d,5fe19436509c7e41d9ff4071,2020-12-22_08h37.58.426,FlowerSimilarity_Experiment,2020.1.2,Win32,60,5fe17d4a51f3a9c1a60f9869,,,,,,,,,,,,,,,,,,,8,PF,,1,2.749,,,,,,,,,,,,,,,,,,,,,,,,,,,,,,,,,,-69,44,1,0,0,response7disk,5,24,5,-4,1,0,0,rectangle,5,-4,1,0,0,,1,6,"[183,71,266,47,300,1,258,230,220,43,241,19,177,157,157,211,47,295,263,268]",5,-4,1,0,0,,0,23,23,98,1,,,,,,,,,,,,,,,,,,,,,
,,,,,,,,,,,,,,,,,,,,,,,,,,,,,,,,,,,,,,,,,,,57cb267a648ff4000166658d,5fe19436509c7e41d9ff4071,2020-12-22_08h37.58.426,FlowerSimilarity_Experiment,2020.1.2,Win32,60,5fe17d4a51f3a9c1a60f9869,,,,,,,,,,,,,,,,,,,3,PF,,7,1.767,,,,,,,,,,,,,,,,,,,,,,,,,,,,,,,,,,49,67,1,0,0,response1disk,9,25,-11,0,1,0,0,rectangle,-11,0,1,0,0,,1,3,"[183,71,266,47,300,1,258,230,220,43,241,19,177,157,157,211,47,295,263,268]",-11,0,1,0,0,,0,24,24,79,1,,,,,,,,,,,,,,,,,,,,,
,,,,,,,,,,,,,,,,,,,,,,,,,,,,,,,,,,,,,,,,,,,57cb267a648ff4000166658d,5fe19436509c7e41d9ff4071,2020-12-22_08h37.58.426,FlowerSimilarity_Experiment,2020.1.2,Win32,60,5fe17d4a51f3a9c1a60f9869,,,,,,,,,,,,,,,,,,,1,PF,,3,2.933,,,,,,,,,,,,,,,,,,,,,,,,,,,,,,,,,,-57,-77,1,0,0,response5disk,6,26,12,1,1,0,0,rectangle,12,1,1,0,0,,1,1,"[183,71,266,47,300,1,258,230,220,43,241,19,177,157,157,211,47,295,263,268]",12,1,1,0,0,,0,25,25,144,1,,,,,,,,,,,,,,,,,,,,,
,,,,,,,,,,,,,,,,,,,,,,,,,,,,,,,,,,,,,,,,,,,57cb267a648ff4000166658d,5fe19436509c7e41d9ff4071,2020-12-22_08h37.58.426,FlowerSimilarity_Experiment,2020.1.2,Win32,60,5fe17d4a51f3a9c1a60f9869,,,,,,,,,,,,,,,,,,,4,FF,,6,3.433,,,,,,,,,,,,,,,,,,,,,,,,,,,,,,,,,,106,53,1,0,0,response1disk,7,27,-2,-5,1,0,0,rectangle,-2,-5,1,0,0,,1,3,"[183,71,266,47,300,1,258,230,220,43,241,19,177,157,157,211,47,295,263,268]",-2,-5,1,0,0,,0,26,26,87,1,,,,,,,,,,,,,,,,,,,,,
,,,,,,,,,,,,,,,,,,,,,,,,,,,,,,,,,,,,,,,,,,,57cb267a648ff4000166658d,5fe19436509c7e41d9ff4071,2020-12-22_08h37.58.426,FlowerSimilarity_Experiment,2020.1.2,Win32,60,5fe17d4a51f3a9c1a60f9869,,,,,,,,,,,,,,,,,,,8,PF,,7,3.667,,,,,,,,,,,,,,,,,,,,,,,,,,,,,,,,,,41,73,1,0,0,response1disk,1,28,-4,5,1,0,0,rectangle,-4,5,1,0,0,,1,7,"[183,71,266,47,300,1,258,230,220,43,241,19,177,157,157,211,47,295,263,268]",-4,5,1,0,0,,0,27,27,57,1,,,,,,,,,,,,,,,,,,,,,
,,,,,,,,,,,,,,,,,,,,,,,,,,,,,,,,,,,,,,,,,,,57cb267a648ff4000166658d,5fe19436509c7e41d9ff4071,2020-12-22_08h37.58.426,FlowerSimilarity_Experiment,2020.1.2,Win32,60,5fe17d4a51f3a9c1a60f9869,,,,,,,,,,,,,,,,,,,7,PF,,4,2.917,,,,,,,,,,,,,,,,,,,,,,,,,,,,,,,,,,39,-99,1,0,0,response3disk,2,29,-3,-4,1,0,0,rectangle,-3,-4,1,0,0,,1,7,"[183,71,266,47,300,1,258,230,220,43,241,19,177,157,157,211,47,295,263,268]",-3,-4,1,0,0,,0,28,28,32,1,,,,,,,,,,,,,,,,,,,,,
,,,,,,,,,,,,,,,,,,,,,,,,,,,,,,,,,,,,,,,,,,,57cb267a648ff4000166658d,5fe19436509c7e41d9ff4071,2020-12-22_08h37.58.426,FlowerSimilarity_Experiment,2020.1.2,Win32,60,5fe17d4a51f3a9c1a60f9869,,,,,,,,,,,,,,,,,,,3,PF,,7,5.3,,,,,,,,,,,,,,,,,,,,,,,,,,,,,,,,,,45,77,1,0,0,response1disk,6,30,-7,-3,1,0,0,rectangle,-7,-3,1,0,0,,1,1,"[183,71,266,47,300,1,258,230,220,43,241,19,177,157,157,211,47,295,263,268]",-7,-3,1,0,0,,0,29,29,47,1,,,,,,,,,,,,,,,,,,,,,
,,,,,,,,,,,,,,,,,,,,,,,,,,,,,,,,,,,,,,,,,,,57cb267a648ff4000166658d,5fe19436509c7e41d9ff4071,2020-12-22_08h37.58.426,FlowerSimilarity_Experiment,2020.1.2,Win32,60,5fe17d4a51f3a9c1a60f9869,,,,,,,,,,,,,,,,,,,8,FF,,6,2.184,,,,,,,,,,,,,,,,,,,,,,,,,,,,,,,,,,91,57,1,0,0,response1disk,7,31,9,5,1,0,0,rectangle,9,5,1,0,0,,1,2,"[183,71,266,47,300,1,258,230,220,43,241,19,177,157,157,211,47,295,263,268]",9,5,1,0,0,,0,30,30,86,1,,,,,,,,,,,,,,,,,,,,,
,,,,,,,,,,,,,,,,,,,,,,,,,,,,,,,,,,,,,,,,,,,57cb267a648ff4000166658d,5fe19436509c7e41d9ff4071,2020-12-22_08h37.58.426,FlowerSimilarity_Experiment,2020.1.2,Win32,60,5fe17d4a51f3a9c1a60f9869,,,,,,,,,,,,,,,,,,,5,FF,,7,2.584,,,,,,,,,,,,,,,,,,,,,,,,,,,,,,,,,,43,83,1,0,0,response1disk,2,32,6,-1,1,0,0,rectangle,6,-1,1,0,0,,1,6,"[183,71,266,47,300,1,258,230,220,43,241,19,177,157,157,211,47,295,263,268]",6,-1,1,0,0,,0,31,31,55,1,,,,,,,,,,,,,,,,,,,,,
,,,,,,,,,,,,,,,,,,,,,,,,,,,,,,,,,,,,,,,,,,,57cb267a648ff4000166658d,5fe19436509c7e41d9ff4071,2020-12-22_08h37.58.426,FlowerSimilarity_Experiment,2020.1.2,Win32,60,5fe17d4a51f3a9c1a60f9869,,,,,,,,,,,,,,,,,,,5,FF,,6,2.016,,,,,,,,,,,,,,,,,,,,,,,,,,,,,,,,,,84,45,1,0,0,response1disk,8,33,-7,3,1,0,0,rectangle,-7,3,1,0,0,,1,4,"[183,71,266,47,300,1,258,230,220,43,241,19,177,157,157,211,47,295,263,268]",-7,3,1,0,0,,0,32,32,16,1,,,,,,,,,,,,,,,,,,,,,
,,,,,,,,,,,,,,,,,,,,,,,,,,,,,,,,,,,,,,,,,,,57cb267a648ff4000166658d,5fe19436509c7e41d9ff4071,2020-12-22_08h37.58.426,FlowerSimilarity_Experiment,2020.1.2,Win32,60,5fe17d4a51f3a9c1a60f9869,,,,,,,,,,,,,,,,,,,7,FF,,7,2.266,,,,,,,,,,,,,,,,,,,,,,,,,,,,,,,,,,41,63,1,0,0,response1disk,1,34,1,3,1,0,0,rectangle,1,3,1,0,0,,1,3,"[183,71,266,47,300,1,258,230,220,43,241,19,177,157,157,211,47,295,263,268]",1,3,1,0,0,,0,33,33,132,1,,,,,,,,,,,,,,,,,,,,,
,,,,,,,,,,,,,,,,,,,,,,,,,,,,,,,,,,,,,,,,,,,57cb267a648ff4000166658d,5fe19436509c7e41d9ff4071,2020-12-22_08h37.58.426,FlowerSimilarity_Experiment,2020.1.2,Win32,60,5fe17d4a51f3a9c1a60f9869,,,,,,,,,,,,,,,,,,,2,PF,,7,1.651,,,,,,,,,,,,,,,,,,,,,,,,,,,,,,,,,,44,82,1,0,0,response1disk,5,35,5,-2,1,0,0,rectangle,5,-2,1,0,0,,1,0,"[183,71,266,47,300,1,258,230,220,43,241,19,177,157,157,211,47,295,263,268]",5,-2,1,0,0,,0,34,34,147,1,,,,,,,,,,,,,,,,,,,,,
,,,,,,,,,,,,,,,,,,,,,,,,,,,,,,,,,,,,,,,,,,,57cb267a648ff4000166658d,5fe19436509c7e41d9ff4071,2020-12-22_08h37.58.426,FlowerSimilarity_Experiment,2020.1.2,Win32,60,5fe17d4a51f3a9c1a60f9869,,,,,,,,,,,,,,,,,,,6,FF,,5,3.734,,,,,,,,,,,,,,,,,,,,,,,,,,,,,,,,,,73,-48,1,0,0,response3disk,1,36,8,-7,1,0,0,rectangle,8,-7,1,0,0,,1,3,"[183,71,266,47,300,1,258,230,220,43,241,19,177,157,157,211,47,295,263,268]",8,-7,1,0,0,,0,35,35,5,1,,,,,,,,,,,,,,,,,,,,,
,,,,,,,,,,,,,,,,,,,,,,,,,,,,,,,,,,,,,,,,,,,57cb267a648ff4000166658d,5fe19436509c7e41d9ff4071,2020-12-22_08h37.58.426,FlowerSimilarity_Experiment,2020.1.2,Win32,60,5fe17d4a51f3a9c1a60f9869,,,,,,,,,,,,,,,,,,,7,FF,,7,2.966,,,,,,,,,,,,,,,,,,,,,,,,,,,,,,,,,,41,73,1,0,0,response1disk,6,37,-14,-2,1,0,0,rectangle,-14,-2,1,0,0,,1,2,"[183,71,266,47,300,1,258,230,220,43,241,19,177,157,157,211,47,295,263,268]",-14,-2,1,0,0,,0,36,36,31,1,,,,,,,,,,,,,,,,,,,,,
,,,,,,,,,,,,,,,,,,,,,,,,,,,,,,,,,,,,,,,,,,,57cb267a648ff4000166658d,5fe19436509c7e41d9ff4071,2020-12-22_08h37.58.426,FlowerSimilarity_Experiment,2020.1.2,Win32,60,5fe17d4a51f3a9c1a60f9869,,,,,,,,,,,,,,,,,,,1,FF,,6,2.434,,,,,,,,,,,,,,,,,,,,,,,,,,,,,,,,,,82,31,1,0,0,response1disk,6,38,11,3,1,0,0,rectangle,11,3,1,0,0,,1,2,"[183,71,266,47,300,1,258,230,220,43,241,19,177,157,157,211,47,295,263,268]",11,3,1,0,0,,0,37,37,58,1,,,,,,,,,,,,,,,,,,,,,
,,,,,,,,,,,,,,,,,,,,,,,,,,,,,,,,,,,,,,,,,,,57cb267a648ff4000166658d,5fe19436509c7e41d9ff4071,2020-12-22_08h37.58.426,FlowerSimilarity_Experiment,2020.1.2,Win32,60,5fe17d4a51f3a9c1a60f9869,,,,,,,,,,,,,,,,,,,5,PF,,5,2.817,,,,,,,,,,,,,,,,,,,,,,,,,,,,,,,,,,61,-29,1,0,0,response3disk,8,39,10,-1,1,0,0,rectangle,10,-1,1,0,0,,1,3,"[183,71,266,47,300,1,258,230,220,43,241,19,177,157,157,211,47,295,263,268]",10,-1,1,0,0,,0,38,38,149,1,,,,,,,,,,,,,,,,,,,,,
,,,,,,,,,,,,,,,,,,,,,,,,,,,,,,,,,,,,,,,,,,,57cb267a648ff4000166658d,5fe19436509c7e41d9ff4071,2020-12-22_08h37.58.426,FlowerSimilarity_Experiment,2020.1.2,Win32,60,5fe17d4a51f3a9c1a60f9869,,,,,,,,,,,,,,,,,,,8,FF,,7,1.867,,,,,,,,,,,,,,,,,,,,,,,,,,,,,,,,,,36,63,1,0,0,response1disk,4,40,-1,-6,1,0,0,rectangle,-1,-6,1,0,0,,1,2,"[183,71,266,47,300,1,258,230,220,43,241,19,177,157,157,211,47,295,263,268]",-1,-6,1,0,0,,0,39,39,88,1,,,,,,,,,,,,,,,,,,,,,
,,,,,,,,,,,,,,,,,,,,,,,,,,,,,,,,,,,,,,,,,,,57cb267a648ff4000166658d,5fe19436509c7e41d9ff4071,2020-12-22_08h37.58.426,FlowerSimilarity_Experiment,2020.1.2,Win32,60,5fe17d4a51f3a9c1a60f9869,,,,,,,,,,,,,,,,,,,1,PF,,7,1.767,,,,,,,,,,,,,,,,,,,,,,,,,,,,,,,,,,29,74,1,0,0,response1disk,7,41,-1,5,1,0,0,rectangle,-1,5,1,0,0,,1,2,"[183,71,266,47,300,1,258,230,220,43,241,19,177,157,157,211,47,295,263,268]",-1,5,1,0,0,,0,40,40,150,1,,,,,,,,,,,,,,,,,,,,,
,,,,,,,,,,,,,,,,,,,,,,,,,,,,,,,,,,,,,,,,,,,57cb267a648ff4000166658d,5fe19436509c7e41d9ff4071,2020-12-22_08h37.58.426,FlowerSimilarity_Experiment,2020.1.2,Win32,60,5fe17d4a51f3a9c1a60f9869,,,,,,,,,,,,,,,,,,,4,FF,,7,2.1,,,,,,,,,,,,,,,,,,,,,,,,,,,,,,,,,,33,81,1,0,0,response1disk,6,42,3,-6,1,0,0,rectangle,3,-6,1,0,0,,1,3,"[183,71,266,47,300,1,258,230,220,43,241,19,177,157,157,211,47,295,263,268]",3,-6,1,0,0,,0,41,41,122,1,,,,,,,,,,,,,,,,,,,,,
,,,,,,,,,,,,,,,,,,,,,,,,,,,,,,,,,,,,,,,,,,,57cb267a648ff4000166658d,5fe19436509c7e41d9ff4071,2020-12-22_08h37.58.426,FlowerSimilarity_Experiment,2020.1.2,Win32,60,5fe17d4a51f3a9c1a60f9869,,,,,,,,,,,,,,,,,,,6,FF,,7,1.667,,,,,,,,,,,,,,,,,,,,,,,,,,,,,,,,,,34,79,1,0,0,response1disk,7,43,-5,0,1,0,0,rectangle,-34,62,1,0,0,response7disk_3,0,0,"[183,71,266,47,300,1,258,230,220,43,241,19,177,157,157,211,47,295,263,268]",3,1,1,0,0,rectangle,0,42,42,18,1,,,,,,,,,,,,,,,,,,,,,
,,,,,,,,,,,,,,,,,,,,,,,,,,,,,,,,,,,,,,,,,,,57cb267a648ff4000166658d,5fe19436509c7e41d9ff4071,2020-12-22_08h37.58.426,FlowerSimilarity_Experiment,2020.1.2,Win32,60,5fe17d4a51f3a9c1a60f9869,,,,,,,,,,,,,,,,,,,2,FF,,6,3.882,,,,,,,,,,,,,,,,,,,,,,,,,,,,,,,,,,100,35,1,0,0,response1disk,5,44,17,3,1,0,0,rectangle,17,3,1,0,0,,0,0,"[183,71,266,47,300,1,258,230,220,43,241,19,177,157,157,211,47,295,263,268]",17,3,1,0,0,,0,43,43,80,1,,,,,,,,,,,,,,,,,,,,,
,,,,,,,,,,,,,,,,,,,,,,,,,,,,,,,,,,,,,,,,,,,57cb267a648ff4000166658d,5fe19436509c7e41d9ff4071,2020-12-22_08h37.58.426,FlowerSimilarity_Experiment,2020.1.2,Win32,60,5fe17d4a51f3a9c1a60f9869,,,,,,,,,,,,,,,,,,,1,FF,,7,2.116,,,,,,,,,,,,,,,,,,,,,,,,,,,,,,,,,,54,89,1,0,0,response1disk,2,45,-5,-1,1,0,0,rectangle,-5,-1,1,0,0,,0,7,"[183,71,266,47,300,1,258,230,220,43,241,19,177,157,157,211,47,295,263,268]",-5,-1,1,0,0,,0,44,44,2,1,,,,,,,,,,,,,,,,,,,,,
,,,,,,,,,,,,,,,,,,,,,,,,,,,,,,,,,,,,,,,,,,,57cb267a648ff4000166658d,5fe19436509c7e41d9ff4071,2020-12-22_08h37.58.426,FlowerSimilarity_Experiment,2020.1.2,Win32,60,5fe17d4a51f3a9c1a60f9869,,,,,,,,,,,,,,,,,,,1,FF,,7,3.934,,,,,,,,,,,,,,,,,,,,,,,,,,,,,,,,,,30,67,1,0,0,response1disk,7,46,5,-3,1,0,0,rectangle,5,-3,1,0,0,,0,4,"[183,71,266,47,300,1,258,230,220,43,241,19,177,157,157,211,47,295,263,268]",5,-3,1,0,0,,0,45,45,137,1,,,,,,,,,,,,,,,,,,,,,
,,,,,,,,,,,,,,,,,,,,,,,,,,,,,,,,,,,,,,,,,,,57cb267a648ff4000166658d,5fe19436509c7e41d9ff4071,2020-12-22_08h37.58.426,FlowerSimilarity_Experiment,2020.1.2,Win32,60,5fe17d4a51f3a9c1a60f9869,,,,,,,,,,,,,,,,,,,7,FF,,0,2,,,,,,,,,,,,,,,,,,,,,,,,,,,,,,,,,,-41,66,1,0,0,response7disk,3,47,-5,-5,1,0,0,rectangle,26,61,1,0,0,response1disk_3,7,7,"[183,71,266,47,300,1,258,230,220,43,241,19,177,157,157,211,47,295,263,268]",1,8,1,0,0,rectangle,0,46,46,73,1,,,,,,,,,,,,,,,,,,,,,
,,,,,,,,,,,,,,,,,,,,,,,,,,,,,,,,,,,,,,,,,,,57cb267a648ff4000166658d,5fe19436509c7e41d9ff4071,2020-12-22_08h37.58.426,FlowerSimilarity_Experiment,2020.1.2,Win32,60,5fe17d4a51f3a9c1a60f9869,,,,,,,,,,,,,,,,,,,7,PF,,6,4.25,,,,,,,,,,,,,,,,,,,,,,,,,,,,,,,,,,103,34,1,0,0,response1disk,4,48,9,0,1,0,0,rectangle,9,0,1,0,0,,7,6,"[183,71,266,47,300,1,258,230,220,43,241,19,177,157,157,211,47,295,263,268]",9,0,1,0,0,,0,47,47,43,1,,,,,,,,,,,,,,,,,,,,,
,,,,,,,,,,,,,,,,,,,,,,,,,,,,,,,,,,,,,,,,,,,57cb267a648ff4000166658d,5fe19436509c7e41d9ff4071,2020-12-22_08h37.58.426,FlowerSimilarity_Experiment,2020.1.2,Win32,60,5fe17d4a51f3a9c1a60f9869,,,,,,,,,,,,,,,,,,,7,FF,,7,1.551,,,,,,,,,,,,,,,,,,,,,,,,,,,,,,,,,,36,79,1,0,0,response1disk,9,49,1,1,1,0,0,rectangle,1,1,1,0,0,,7,5,"[183,71,266,47,300,1,258,230,220,43,241,19,177,157,157,211,47,295,263,268]",1,1,1,0,0,,0,48,48,155,1,,,,,,,,,,,,,,,,,,,,,
,,,,,,,,,,,,,,,,,,,,,,,,,,,,,,,,,,,,,,,,,,,57cb267a648ff4000166658d,5fe19436509c7e41d9ff4071,2020-12-22_08h37.58.426,FlowerSimilarity_Experiment,2020.1.2,Win32,60,5fe17d4a51f3a9c1a60f9869,,,,,,,,,,,,,,,,,,,7,FF,,0,1.85,,,,,,,,,,,,,,,,,,,,,,,,,,,,,,,,,,-29,58,1,0,0,response7disk,7,50,14,2,1,0,0,rectangle,14,2,1,0,0,,7,2,"[183,71,266,47,300,1,258,230,220,43,241,19,177,157,157,211,47,295,263,268]",14,2,1,0,0,,0,49,49,34,1,,,,,,,,,,,,,,,,,,,,,
,,,,,,,,,,,,,,,,,,,,,,,,,,,,,,,,,,,,,,,,,,,57cb267a648ff4000166658d,5fe19436509c7e41d9ff4071,2020-12-22_08h37.58.426,FlowerSimilarity_Experiment,2020.1.2,Win32,60,5fe17d4a51f3a9c1a60f9869,,,,,,,,,,,,,,,,,,,9,FF,,5,2.118,,,,,,,,,,,,,,,,,,,,,,,,,,,,,,,,,,61,-31,1,0,0,response3disk,6,51,-2,-1,1,0,0,rectangle,-2,-1,1,0,0,,7,3,"[183,71,266,47,300,1,258,230,220,43,241,19,177,157,157,211,47,295,263,268]",-2,-1,1,0,0,,0,50,50,117,1,,,,,,,,,,,,,,,,,,,,,
,,,,,,,,,,,,,,,,,,,,,,,,,,,,,,,,,,,,,,,,,,,57cb267a648ff4000166658d,5fe19436509c7e41d9ff4071,2020-12-22_08h37.58.426,FlowerSimilarity_Experiment,2020.1.2,Win32,60,5fe17d4a51f3a9c1a60f9869,,,,,,,,,,,,,,,,,,,7,PF,,7,2.3,,,,,,,,,,,,,,,,,,,,,,,,,,,,,,,,,,37,71,1,0,0,response1disk,6,52,-5,2,1,0,0,rectangle,-5,2,1,0,0,,7,0,"[183,71,266,47,300,1,258,230,220,43,241,19,177,157,157,211,47,295,263,268]",-5,2,1,0,0,,0,51,51,29,1,,,,,,,,,,,,,,,,,,,,,
,,,,,,,,,,,,,,,,,,,,,,,,,,,,,,,,,,,,,,,,,,,57cb267a648ff4000166658d,5fe19436509c7e41d9ff4071,2020-12-22_08h37.58.426,FlowerSimilarity_Experiment,2020.1.2,Win32,60,5fe17d4a51f3a9c1a60f9869,,,,,,,,,,,,,,,,,,,7,PF,,1,3.683,,,,,,,,,,,,,,,,,,,,,,,,,,,,,,,,,,-62,36,1,0,0,response7disk,3,53,7,0,1,0,0,rectangle,7,0,1,0,0,,7,0,"[183,71,266,47,300,1,258,230,220,43,241,19,177,157,157,211,47,295,263,268]",7,0,1,0,0,,0,52,52,81,1,,,,,,,,,,,,,,,,,,,,,
,,,,,,,,,,,,,,,,,,,,,,,,,,,,,,,,,,,,,,,,,,,57cb267a648ff4000166658d,5fe19436509c7e41d9ff4071,2020-12-22_08h37.58.426,FlowerSimilarity_Experiment,2020.1.2,Win32,60,5fe17d4a51f3a9c1a60f9869,,,,,,,,,,,,,,,,,,,1,PF,,7,1.7,,,,,,,,,,,,,,,,,,,,,,,,,,,,,,,,,,59,81,1,0,0,response1disk,2,54,-3,-1,1,0,0,rectangle,-3,-1,1,0,0,,7,3,"[183,71,266,47,300,1,258,230,220,43,241,19,177,157,157,211,47,295,263,268]",-3,-1,1,0,0,,0,53,53,24,1,,,,,,,,,,,,,,,,,,,,,
,,,,,,,,,,,,,,,,,,,,,,,,,,,,,,,,,,,,,,,,,,,57cb267a648ff4000166658d,5fe19436509c7e41d9ff4071,2020-12-22_08h37.58.426,FlowerSimilarity_Experiment,2020.1.2,Win32,60,5fe17d4a51f3a9c1a60f9869,,,,,,,,,,,,,,,,,,,9,FF,,4,2.917,,,,,,,,,,,,,,,,,,,,,,,,,,,,,,,,,,46,-72,1,0,0,response3disk,1,55,2,-1,1,0,0,rectangle,2,-1,1,0,0,,7,5,"[183,71,266,47,300,1,258,230,220,43,241,19,177,157,157,211,47,295,263,268]",2,-1,1,0,0,,0,54,54,111,1,,,,,,,,,,,,,,,,,,,,,
,,,,,,,,,,,,,,,,,,,,,,,,,,,,,,,,,,,,,,,,,,,57cb267a648ff4000166658d,5fe19436509c7e41d9ff4071,2020-12-22_08h37.58.426,FlowerSimilarity_Experiment,2020.1.2,Win32,60,5fe17d4a51f3a9c1a60f9869,,,,,,,,,,,,,,,,,,,9,PF,,2,5.068,,,,,,,,,,,,,,,,,,,,,,,,,,,,,,,,,,-86,-41,1,0,0,response5disk,9,56,6,1,1,0,0,rectangle,6,1,1,0,0,,7,2,"[183,71,266,47,300,1,258,230,220,43,241,19,177,157,157,211,47,295,263,268]",6,1,1,0,0,,0,55,55,106,1,,,,,,,,,,,,,,,,,,,,,
,,,,,,,,,,,,,,,,,,,,,,,,,,,,,,,,,,,,,,,,,,,57cb267a648ff4000166658d,5fe19436509c7e41d9ff4071,2020-12-22_08h37.58.426,FlowerSimilarity_Experiment,2020.1.2,Win32,60,5fe17d4a51f3a9c1a60f9869,,,,,,,,,,,,,,,,,,,8,PF,,7,1.634,,,,,,,,,,,,,,,,,,,,,,,,,,,,,,,,,,37,51,1,0,0,response1disk,4,57,-4,1,1,0,0,rectangle,-4,1,1,0,0,,7,7,"[183,71,266,47,300,1,258,230,220,43,241,19,177,157,157,211,47,295,263,268]",-4,1,1,0,0,,0,56,56,78,1,,,,,,,,,,,,,,,,,,,,,
,,,,,,,,,,,,,,,,,,,,,,,,,,,,,,,,,,,,,,,,,,,57cb267a648ff4000166658d,5fe19436509c7e41d9ff4071,2020-12-22_08h37.58.426,FlowerSimilarity_Experiment,2020.1.2,Win32,60,5fe17d4a51f3a9c1a60f9869,,,,,,,,,,,,,,,,,,,1,FF,,7,1.65,,,,,,,,,,,,,,,,,,,,,,,,,,,,,,,,,,43,87,1,0,0,response1disk,5,58,-9,3,1,0,0,rectangle,-9,3,1,0,0,,7,7,"[183,71,266,47,300,1,258,230,220,43,241,19,177,157,157,211,47,295,263,268]",-9,3,1,0,0,,0,57,57,82,1,,,,,,,,,,,,,,,,,,,,,
,,,,,,,,,,,,,,,,,,,,,,,,,,,,,,,,,,,,,,,,,,,57cb267a648ff4000166658d,5fe19436509c7e41d9ff4071,2020-12-22_08h37.58.426,FlowerSimilarity_Experiment,2020.1.2,Win32,60,5fe17d4a51f3a9c1a60f9869,,,,,,,,,,,,,,,,,,,5,FF,,7,1.466,,,,,,,,,,,,,,,,,,,,,,,,,,,,,,,,,,39,71,1,0,0,response1disk,4,59,2,5,1,0,0,rectangle,2,5,1,0,0,,7,0,"[183,71,266,47,300,1,258,230,220,43,241,19,177,157,157,211,47,295,263,268]",2,5,1,0,0,,0,58,58,8,1,,,,,,,,,,,,,,,,,,,,,
,,,,,,,,,,,,,,,,,,,,,,,,,,,,,,,,,,,,,,,,,,,57cb267a648ff4000166658d,5fe19436509c7e41d9ff4071,2020-12-22_08h37.58.426,FlowerSimilarity_Experiment,2020.1.2,Win32,60,5fe17d4a51f3a9c1a60f9869,,,,,,,,,,,,,,,,,,,3,FF,,7,2.6,,,,,,,,,,,,,,,,,,,,,,,,,,,,,,,,,,21,57,1,0,0,response1disk,4,60,11,-5,1,0,0,rectangle,11,-5,1,0,0,,7,0,"[183,71,266,47,300,1,258,230,220,43,241,19,177,157,157,211,47,295,263,268]",11,-5,1,0,0,,0,59,59,110,1,,,,,,,,,,,,,,,,,,,,,
,,,,,,,,,,,,,,,,,,,,,,,,,,,,,,,,,,,,,,,,,,,57cb267a648ff4000166658d,5fe19436509c7e41d9ff4071,2020-12-22_08h37.58.426,FlowerSimilarity_Experiment,2020.1.2,Win32,60,5fe17d4a51f3a9c1a60f9869,,,,,,,,,,,,,,,,,,,3,FF,,7,1.517,,,,,,,,,,,,,,,,,,,,,,,,,,,,,,,,,,57,85,1,0,0,response1disk,2,61,-6,3,1,0,0,rectangle,-6,3,1,0,0,,7,2,"[183,71,266,47,300,1,258,230,220,43,241,19,177,157,157,211,47,295,263,268]",-6,3,1,0,0,,0,60,60,93,1,,,,,,,,,,,,,,,,,,,,,
,,,,,,,,,,,,,,,,,,,,,,,,,,,,,,,,,,,,,,,,,,,57cb267a648ff4000166658d,5fe19436509c7e41d9ff4071,2020-12-22_08h37.58.426,FlowerSimilarity_Experiment,2020.1.2,Win32,60,5fe17d4a51f3a9c1a60f9869,,,,,,,,,,,,,,,,,,,2,FF,,7,1.433,,,,,,,,,,,,,,,,,,,,,,,,,,,,,,,,,,31,62,1,0,0,response1disk,6,62,9,2,1,0,0,rectangle,9,2,1,0,0,,7,5,"[183,71,266,47,300,1,258,230,220,43,241,19,177,157,157,211,47,295,263,268]",9,2,1,0,0,,0,61,61,40,1,,,,,,,,,,,,,,,,,,,,,
,,,,,,,,,,,,,,,,,,,,,,,,,,,,,,,,,,,,,,,,,,,57cb267a648ff4000166658d,5fe19436509c7e41d9ff4071,2020-12-22_08h37.58.426,FlowerSimilarity_Experiment,2020.1.2,Win32,60,5fe17d4a51f3a9c1a60f9869,,,,,,,,,,,,,,,,,,,5,FF,,7,2.984,,,,,,,,,,,,,,,,,,,,,,,,,,,,,,,,,,33,65,1,0,0,response1disk,6,63,3,1,1,0,0,rectangle,3,1,1,0,0,,7,1,"[183,71,266,47,300,1,258,230,220,43,241,19,177,157,157,211,47,295,263,268]",3,1,1,0,0,,0,62,62,12,1,,,,,,,,,,,,,,,,,,,,,
,,,,,,,,,,,,,,,,,,,,,,,,,,,,,,,,,,,,,,,,,,,57cb267a648ff4000166658d,5fe19436509c7e41d9ff4071,2020-12-22_08h37.58.426,FlowerSimilarity_Experiment,2020.1.2,Win32,60,5fe17d4a51f3a9c1a60f9869,,,,,,,,,,,,,,,,,,,2,FF,,7,2.233,,,,,,,,,,,,,,,,,,,,,,,,,,,,,,,,,,43,78,1,0,0,response1disk,9,64,3,2,1,0,0,rectangle,3,2,1,0,0,,7,5,"[183,71,266,47,300,1,258,230,220,43,241,19,177,157,157,211,47,295,263,268]",3,2,1,0,0,,0,63,63,72,1,,,,,,,,,,,,,,,,,,,,,
,,,,,,,,,,,,,,,,,,,,,,,,,,,,,,,,,,,,,,,,,,,57cb267a648ff4000166658d,5fe19436509c7e41d9ff4071,2020-12-22_08h37.58.426,FlowerSimilarity_Experiment,2020.1.2,Win32,60,5fe17d4a51f3a9c1a60f9869,,,,,,,,,,,,,,,,,,,7,FF,,7,1.433,,,,,,,,,,,,,,,,,,,,,,,,,,,,,,,,,,35,69,1,0,0,response1disk,2,65,15,6,1,0,0,rectangle,15,6,1,0,0,,7,6,"[183,71,266,47,300,1,258,230,220,43,241,19,177,157,157,211,47,295,263,268]",15,6,1,0,0,,0,64,64,138,1,,,,,,,,,,,,,,,,,,,,,
,,,,,,,,,,,,,,,,,,,,,,,,,,,,,,,,,,,,,,,,,,,57cb267a648ff4000166658d,5fe19436509c7e41d9ff4071,2020-12-22_08h37.58.426,FlowerSimilarity_Experiment,2020.1.2,Win32,60,5fe17d4a51f3a9c1a60f9869,,,,,,,,,,,,,,,,,,,6,PF,,7,3.3,,,,,,,,,,,,,,,,,,,,,,,,,,,,,,,,,,57,90,1,0,0,response1disk,7,66,8,-3,1,0,0,rectangle,8,-3,1,0,0,,7,7,"[183,71,266,47,300,1,258,230,220,43,241,19,177,157,157,211,47,295,263,268]",8,-3,1,0,0,,0,65,65,50,1,,,,,,,,,,,,,,,,,,,,,
,,,,,,,,,,,,,,,,,,,,,,,,,,,,,,,,,,,,,,,,,,,57cb267a648ff4000166658d,5fe19436509c7e41d9ff4071,2020-12-22_08h37.58.426,FlowerSimilarity_Experiment,2020.1.2,Win32,60,5fe17d4a51f3a9c1a60f9869,,,,,,,,,,,,,,,,,,,1,PF,,7,1.566,,,,,,,,,,,,,,,,,,,,,,,,,,,,,,,,,,48,66,1,0,0,response1disk,3,67,6,5,1,0,0,rectangle,6,5,1,0,0,,7,6,"[183,71,266,47,300,1,258,230,220,43,241,19,177,157,157,211,47,295,263,268]",6,5,1,0,0,,0,66,66,1,1,,,,,,,,,,,,,,,,,,,,,
,,,,,,,,,,,,,,,,,,,,,,,,,,,,,,,,,,,,,,,,,,,57cb267a648ff4000166658d,5fe19436509c7e41d9ff4071,2020-12-22_08h37.58.426,FlowerSimilarity_Experiment,2020.1.2,Win32,60,5fe17d4a51f3a9c1a60f9869,,,,,,,,,,,,,,,,,,,6,FF,,6,2.233,,,,,,,,,,,,,,,,,,,,,,,,,,,,,,,,,,63,46,1,0,0,response1disk,9,68,-6,6,1,0,0,rectangle,-6,6,1,0,0,,7,7,"[183,71,266,47,300,1,258,230,220,43,241,19,177,157,157,211,47,295,263,268]",-6,6,1,0,0,,0,67,67,160,1,,,,,,,,,,,,,,,,,,,,,
,,,,,,,,,,,,,,,,,,,,,,,,,,,,,,,,,,,,,,,,,,,57cb267a648ff4000166658d,5fe19436509c7e41d9ff4071,2020-12-22_08h37.58.426,FlowerSimilarity_Experiment,2020.1.2,Win32,60,5fe17d4a51f3a9c1a60f9869,,,,,,,,,,,,,,,,,,,8,PF,,6,1.7,,,,,,,,,,,,,,,,,,,,,,,,,,,,,,,,,,70,29,1,0,0,response1disk,3,69,25,10,1,0,0,rectangle,25,10,1,0,0,,7,5,"[183,71,266,47,300,1,258,230,220,43,241,19,177,157,157,211,47,295,263,268]",25,10,1,0,0,,0,68,68,71,1,,,,,,,,,,,,,,,,,,,,,
,,,,,,,,,,,,,,,,,,,,,,,,,,,,,,,,,,,,,,,,,,,57cb267a648ff4000166658d,5fe19436509c7e41d9ff4071,2020-12-22_08h37.58.426,FlowerSimilarity_Experiment,2020.1.2,Win32,60,5fe17d4a51f3a9c1a60f9869,,,,,,,,,,,,,,,,,,,6,PF,,5,2.967,,,,,,,,,,,,,,,,,,,,,,,,,,,,,,,,,,73,-41,1,0,0,response3disk,1,70,-5,2,1,0,0,rectangle,-5,2,1,0,0,,7,4,"[183,71,266,47,300,1,258,230,220,43,241,19,177,157,157,211,47,295,263,268]",-5,2,1,0,0,,0,69,69,46,1,,,,,,,,,,,,,,,,,,,,,
,,,,,,,,,,,,,,,,,,,,,,,,,,,,,,,,,,,,,,,,,,,57cb267a648ff4000166658d,5fe19436509c7e41d9ff4071,2020-12-22_08h37.58.426,FlowerSimilarity_Experiment,2020.1.2,Win32,60,5fe17d4a51f3a9c1a60f9869,,,,,,,,,,,,,,,,,,,3,FF,,7,1.417,,,,,,,,,,,,,,,,,,,,,,,,,,,,,,,,,,60,95,1,0,0,response1disk,9,71,9,4,1,0,0,rectangle,-77,35,1,0,0,response7disk_3,1,1,"[183,71,266,47,300,1,258,230,220,43,241,19,177,157,157,211,47,295,263,268]",1,-1,1,0,0,rectangle,0,70,70,143,1,,,,,,,,,,,,,,,,,,,,,
,,,,,,,,,,,,,,,,,,,,,,,,,,,,,,,,,,,,,,,,,,,57cb267a648ff4000166658d,5fe19436509c7e41d9ff4071,2020-12-22_08h37.58.426,FlowerSimilarity_Experiment,2020.1.2,Win32,60,5fe17d4a51f3a9c1a60f9869,,,,,,,,,,,,,,,,,,,6,PF,,6,2.133,,,,,,,,,,,,,,,,,,,,,,,,,,,,,,,,,,72,30,1,0,0,response1disk,5,72,4,-8,1,0,0,rectangle,4,-8,1,0,0,,1,1,"[183,71,266,47,300,1,258,230,220,43,241,19,177,157,157,211,47,295,263,268]",4,-8,1,0,0,,0,71,71,59,1,,,,,,,,,,,,,,,,,,,,,
,,,,,,,,,,,,,,,,,,,,,,,,,,,,,,,,,,,,,,,,,,,57cb267a648ff4000166658d,5fe19436509c7e41d9ff4071,2020-12-22_08h37.58.426,FlowerSimilarity_Experiment,2020.1.2,Win32,60,5fe17d4a51f3a9c1a60f9869,,,,,,,,,,,,,,,,,,,8,FF,,7,1.583,,,,,,,,,,,,,,,,,,,,,,,,,,,,,,,,,,39,61,1,0,0,response1disk,1,73,2,-1,1,0,0,rectangle,2,-1,1,0,0,,1,4,"[183,71,266,47,300,1,258,230,220,43,241,19,177,157,157,211,47,295,263,268]",2,-1,1,0,0,,0,72,72,20,1,,,,,,,,,,,,,,,,,,,,,
,,,,,,,,,,,,,,,,,,,,,,,,,,,,,,,,,,,,,,,,,,,57cb267a648ff4000166658d,5fe19436509c7e41d9ff4071,2020-12-22_08h37.58.426,FlowerSimilarity_Experiment,2020.1.2,Win32,60,5fe17d4a51f3a9c1a60f9869,,,,,,,,,,,,,,,,,,,1,PF,,7,3.284,,,,,,,,,,,,,,,,,,,,,,,,,,,,,,,,,,29,51,1,0,0,response1disk,8,74,9,2,1,0,0,rectangle,9,2,1,0,0,,1,6,"[183,71,266,47,300,1,258,230,220,43,241,19,177,157,157,211,47,295,263,268]",9,2,1,0,0,,0,73,73,65,1,,,,,,,,,,,,,,,,,,,,,
,,,,,,,,,,,,,,,,,,,,,,,,,,,,,,,,,,,,,,,,,,,57cb267a648ff4000166658d,5fe19436509c7e41d9ff4071,2020-12-22_08h37.58.426,FlowerSimilarity_Experiment,2020.1.2,Win32,60,5fe17d4a51f3a9c1a60f9869,,,,,,,,,,,,,,,,,,,9,PF,,6,3.868,,,,,,,,,,,,,,,,,,,,,,,,,,,,,,,,,,68,45,1,0,0,response1disk,4,75,10,5,1,0,0,rectangle,10,5,1,0,0,,1,0,"[183,71,266,47,300,1,258,230,220,43,241,19,177,157,157,211,47,295,263,268]",10,5,1,0,0,,0,74,74,114,1,,,,,,,,,,,,,,,,,,,,,
,,,,,,,,,,,,,,,,,,,,,,,,,,,,,,,,,,,,,,,,,,,57cb267a648ff4000166658d,5fe19436509c7e41d9ff4071,2020-12-22_08h37.58.426,FlowerSimilarity_Experiment,2020.1.2,Win32,60,5fe17d4a51f3a9c1a60f9869,,,,,,,,,,,,,,,,,,,2,FF,,6,1.832,,,,,,,,,,,,,,,,,,,,,,,,,,,,,,,,,,69,37,1,0,0,response1disk,4,76,19,1,1,0,0,rectangle,19,1,1,0,0,,1,5,"[183,71,266,47,300,1,258,230,220,43,241,19,177,157,157,211,47,295,263,268]",19,1,1,0,0,,0,75,75,145,1,,,,,,,,,,,,,,,,,,,,,
,,,,,,,,,,,,,,,,,,,,,,,,,,,,,,,,,,,,,,,,,,,57cb267a648ff4000166658d,5fe19436509c7e41d9ff4071,2020-12-22_08h37.58.426,FlowerSimilarity_Experiment,2020.1.2,Win32,60,5fe17d4a51f3a9c1a60f9869,,,,,,,,,,,,,,,,,,,3,PF,,5,2.184,,,,,,,,,,,,,,,,,,,,,,,,,,,,,,,,,,69,-27,1,0,0,response3disk,5,77,6,0,1,0,0,rectangle,6,0,1,0,0,,1,1,"[183,71,266,47,300,1,258,230,220,43,241,19,177,157,157,211,47,295,263,268]",6,0,1,0,0,,0,76,76,66,1,,,,,,,,,,,,,,,,,,,,,
,,,,,,,,,,,,,,,,,,,,,,,,,,,,,,,,,,,,,,,,,,,57cb267a648ff4000166658d,5fe19436509c7e41d9ff4071,2020-12-22_08h37.58.426,FlowerSimilarity_Experiment,2020.1.2,Win32,60,5fe17d4a51f3a9c1a60f9869,,,,,,,,,,,,,,,,,,,1,PF,,0,2.2,,,,,,,,,,,,,,,,,,,,,,,,,,,,,,,,,,-29,67,1,0,0,response7disk,1,78,7,-3,1,0,0,rectangle,7,-3,1,0,0,,1,3,"[183,71,266,47,300,1,258,230,220,43,241,19,177,157,157,211,47,295,263,268]",7,-3,1,0,0,,0,77,77,76,1,,,,,,,,,,,,,,,,,,,,,
,,,,,,,,,,,,,,,,,,,,,,,,,,,,,,,,,,,,,,,,,,,57cb267a648ff4000166658d,5fe19436509c7e41d9ff4071,2020-12-22_08h37.58.426,FlowerSimilarity_Experiment,2020.1.2,Win32,60,5fe17d4a51f3a9c1a60f9869,,,,,,,,,,,,,,,,,,,1,FF,,7,3.384,,,,,,,,,,,,,,,,,,,,,,,,,,,,,,,,,,47,57,1,0,0,response1disk,3,79,8,9,1,0,0,rectangle,8,9,1,0,0,,1,0,"[183,71,266,47,300,1,258,230,220,43,241,19,177,157,157,211,47,295,263,268]",8,9,1,0,0,,0,78,78,99,1,,,,,,,,,,,,,,,,,,,,,
,,,,,,,,,,,,,,,,,,,,,,,,,,,,,,,,,,,,,,,,,,,57cb267a648ff4000166658d,5fe19436509c7e41d9ff4071,2020-12-22_08h37.58.426,FlowerSimilarity_Experiment,2020.1.2,Win32,60,5fe17d4a51f3a9c1a60f9869,,,,,,,,,,,,,,,,,,,4,PF,,7,1.65,,,,,,,,,,,,,,,,,,,,,,,,,,,,,,,,,,37,69,1,0,0,response1disk,9,80,-5,-5,1,0,0,rectangle,-5,-5,1,0,0,,1,1,"[183,71,266,47,300,1,258,230,220,43,241,19,177,157,157,211,47,295,263,268]",-5,-5,1,0,0,,0,79,79,75,1,,,,,,,,,,,,,,,,,,,,,
,,,,,,,,,,,,,,,,,,,,,,,,,,,,,,,,,,,,,,,,,,,57cb267a648ff4000166658d,5fe19436509c7e41d9ff4071,2020-12-22_08h37.58.426,FlowerSimilarity_Experiment,2020.1.2,Win32,60,5fe17d4a51f3a9c1a60f9869,,,,,,,,,,,,,,,,,,,9,PF,,6,4.182,,,,,,,,,,,,,,,,,,,,,,,,,,,,,,,,,,85,39,1,0,0,response1disk,6,81,10,1,1,0,0,rectangle,10,1,1,0,0,,1,3,"[183,71,266,47,300,1,258,230,220,43,241,19,177,157,157,211,47,295,263,268]",10,1,1,0,0,,0,80,80,148,1,,,,,,,,,,,,,,,,,,,,,
,,,,,,,,,,,,,,,,,,,,,,,,,,,,,,,,,,,,,,,,,,,57cb267a648ff4000166658d,5fe19436509c7e41d9ff4071,2020-12-22_08h37.58.426,FlowerSimilarity_Experiment,2020.1.2,Win32,60,5fe17d4a51f3a9c1a60f9869,,,,,,,,,,,,,,,,,,,6,FF,,6,5.367,,,,,,,,,,,,,,,,,,,,,,,,,,,,,,,,,,80,46,1,0,0,response1disk,8,82,14,1,1,0,0,rectangle,14,1,1,0,0,,1,1,"[183,71,266,47,300,1,258,230,220,43,241,19,177,157,157,211,47,295,263,268]",14,1,1,0,0,,0,81,81,133,1,,,,,,,,,,,,,,,,,,,,,
,,,,,,,,,,,,,,,,,,,,,,,,,,,,,,,,,,,,,,,,,,,57cb267a648ff4000166658d,5fe19436509c7e41d9ff4071,2020-12-22_08h37.58.426,FlowerSimilarity_Experiment,2020.1.2,Win32,60,5fe17d4a51f3a9c1a60f9869,,,,,,,,,,,,,,,,,,,9,FF,,7,1.683,,,,,,,,,,,,,,,,,,,,,,,,,,,,,,,,,,43,63,1,0,0,response1disk,2,83,0,-11,1,0,0,rectangle,0,-11,1,0,0,,1,1,"[183,71,266,47,300,1,258,230,220,43,241,19,177,157,157,211,47,295,263,268]",0,-11,1,0,0,,0,82,82,11,1,,,,,,,,,,,,,,,,,,,,,
,,,,,,,,,,,,,,,,,,,,,,,,,,,,,,,,,,,,,,,,,,,57cb267a648ff4000166658d,5fe19436509c7e41d9ff4071,2020-12-22_08h37.58.426,FlowerSimilarity_Experiment,2020.1.2,Win32,60,5fe17d4a51f3a9c1a60f9869,,,,,,,,,,,,,,,,,,,2,PF,,6,3.466,,,,,,,,,,,,,,,,,,,,,,,,,,,,,,,,,,75,34,1,0,0,response1disk,3,84,13,10,1,0,0,rectangle,13,10,1,0,0,,1,4,"[183,71,266,47,300,1,258,230,220,43,241,19,177,157,157,211,47,295,263,268]",13,10,1,0,0,,0,83,83,69,1,,,,,,,,,,,,,,,,,,,,,
,,,,,,,,,,,,,,,,,,,,,,,,,,,,,,,,,,,,,,,,,,,57cb267a648ff4000166658d,5fe19436509c7e41d9ff4071,2020-12-22_08h37.58.426,FlowerSimilarity_Experiment,2020.1.2,Win32,60,5fe17d4a51f3a9c1a60f9869,,,,,,,,,,,,,,,,,,,9,PF,,7,1.933,,,,,,,,,,,,,,,,,,,,,,,,,,,,,,,,,,43,75,1,0,0,response1disk,5,85,-3,3,1,0,0,rectangle,-3,3,1,0,0,,1,1,"[183,71,266,47,300,1,258,230,220,43,241,19,177,157,157,211,47,295,263,268]",-3,3,1,0,0,,0,84,84,134,1,,,,,,,,,,,,,,,,,,,,,
,,,,,,,,,,,,,,,,,,,,,,,,,,,,,,,,,,,,,,,,,,,57cb267a648ff4000166658d,5fe19436509c7e41d9ff4071,2020-12-22_08h37.58.426,FlowerSimilarity_Experiment,2020.1.2,Win32,60,5fe17d4a51f3a9c1a60f9869,,,,,,,,,,,,,,,,,,,7,FF,,6,1.85,,,,,,,,,,,,,,,,,,,,,,,,,,,,,,,,,,75,37,1,0,0,response1disk,5,86,5,-3,1,0,0,rectangle,5,-3,1,0,0,,1,3,"[183,71,266,47,300,1,258,230,220,43,241,19,177,157,157,211,47,295,263,268]",5,-3,1,0,0,,0,85,85,156,1,,,,,,,,,,,,,,,,,,,,,
,,,,,,,,,,,,,,,,,,,,,,,,,,,,,,,,,,,,,,,,,,,57cb267a648ff4000166658d,5fe19436509c7e41d9ff4071,2020-12-22_08h37.58.426,FlowerSimilarity_Experiment,2020.1.2,Win32,60,5fe17d4a51f3a9c1a60f9869,,,,,,,,,,,,,,,,,,,2,PF,,7,1.634,,,,,,,,,,,,,,,,,,,,,,,,,,,,,,,,,,50,77,1,0,0,response1disk,1,87,12,12,1,0,0,rectangle,12,12,1,0,0,,1,7,"[183,71,266,47,300,1,258,230,220,43,241,19,177,157,157,211,47,295,263,268]",12,12,1,0,0,,0,86,86,9,1,,,,,,,,,,,,,,,,,,,,,
,,,,,,,,,,,,,,,,,,,,,,,,,,,,,,,,,,,,,,,,,,,57cb267a648ff4000166658d,5fe19436509c7e41d9ff4071,2020-12-22_08h37.58.426,FlowerSimilarity_Experiment,2020.1.2,Win32,60,5fe17d4a51f3a9c1a60f9869,,,,,,,,,,,,,,,,,,,9,FF,,0,3.618,,,,,,,,,,,,,,,,,,,,,,,,,,,,,,,,,,-38,78,1,0,0,response7disk,9,88,9,5,1,0,0,rectangle,9,5,1,0,0,,1,3,"[183,71,266,47,300,1,258,230,220,43,241,19,177,157,157,211,47,295,263,268]",9,5,1,0,0,,0,87,87,17,1,,,,,,,,,,,,,,,,,,,,,
,,,,,,,,,,,,,,,,,,,,,,,,,,,,,,,,,,,,,,,,,,,57cb267a648ff4000166658d,5fe19436509c7e41d9ff4071,2020-12-22_08h37.58.426,FlowerSimilarity_Experiment,2020.1.2,Win32,60,5fe17d4a51f3a9c1a60f9869,,,,,,,,,,,,,,,,,,,4,PF,,5,4.383,,,,,,,,,,,,,,,,,,,,,,,,,,,,,,,,,,59,-37,1,0,0,response3disk,3,89,2,3,1,0,0,rectangle,2,3,1,0,0,,1,0,"[183,71,266,47,300,1,258,230,220,43,241,19,177,157,157,211,47,295,263,268]",2,3,1,0,0,,0,88,88,89,1,,,,,,,,,,,,,,,,,,,,,
,,,,,,,,,,,,,,,,,,,,,,,,,,,,,,,,,,,,,,,,,,,57cb267a648ff4000166658d,5fe19436509c7e41d9ff4071,2020-12-22_08h37.58.426,FlowerSimilarity_Experiment,2020.1.2,Win32,60,5fe17d4a51f3a9c1a60f9869,,,,,,,,,,,,,,,,,,,2,FF,,5,2.118,,,,,,,,,,,,,,,,,,,,,,,,,,,,,,,,,,68,-29,1,0,0,response3disk,3,90,7,1,1,0,0,rectangle,7,1,1,0,0,,1,3,"[183,71,266,47,300,1,258,230,220,43,241,19,177,157,157,211,47,295,263,268]",7,1,1,0,0,,0,89,89,104,1,,,,,,,,,,,,,,,,,,,,,
,,,,,,,,,,,,,,,,,,,,,,,,,,,,,,,,,,,,,,,,,,,57cb267a648ff4000166658d,5fe19436509c7e41d9ff4071,2020-12-22_08h37.58.426,FlowerSimilarity_Experiment,2020.1.2,Win32,60,5fe17d4a51f3a9c1a60f9869,,,,,,,,,,,,,,,,,,,8,FF,,0,1.75,,,,,,,,,,,,,,,,,,,,,,,,,,,,,,,,,,-35,68,1,0,0,response7disk,8,91,-5,4,1,0,0,rectangle,-5,4,1,0,0,,1,5,"[183,71,266,47,300,1,258,230,220,43,241,19,177,157,157,211,47,295,263,268]",-5,4,1,0,0,,0,90,90,48,1,,,,,,,,,,,,,,,,,,,,,
,,,,,,,,,,,,,,,,,,,,,,,,,,,,,,,,,,,,,,,,,,,57cb267a648ff4000166658d,5fe19436509c7e41d9ff4071,2020-12-22_08h37.58.426,FlowerSimilarity_Experiment,2020.1.2,Win32,60,5fe17d4a51f3a9c1a60f9869,,,,,,,,,,,,,,,,,,,1,FF,,7,1.85,,,,,,,,,,,,,,,,,,,,,,,,,,,,,,,,,,47,85,1,0,0,response1disk,4,92,-7,4,1,0,0,rectangle,-7,4,1,0,0,,1,5,"[183,71,266,47,300,1,258,230,220,43,241,19,177,157,157,211,47,295,263,268]",-7,4,1,0,0,,0,91,91,135,1,,,,,,,,,,,,,,,,,,,,,
,,,,,,,,,,,,,,,,,,,,,,,,,,,,,,,,,,,,,,,,,,,57cb267a648ff4000166658d,5fe19436509c7e41d9ff4071,2020-12-22_08h37.58.426,FlowerSimilarity_Experiment,2020.1.2,Win32,60,5fe17d4a51f3a9c1a60f9869,,,,,,,,,,,,,,,,,,,4,PF,,7,1.532,,,,,,,,,,,,,,,,,,,,,,,,,,,,,,,,,,32,65,1,0,0,response1disk,8,93,3,-9,1,0,0,rectangle,3,-9,1,0,0,,1,3,"[183,71,266,47,300,1,258,230,220,43,241,19,177,157,157,211,47,295,263,268]",3,-9,1,0,0,,0,92,92,124,1,,,,,,,,,,,,,,,,,,,,,
,,,,,,,,,,,,,,,,,,,,,,,,,,,,,,,,,,,,,,,,,,,57cb267a648ff4000166658d,5fe19436509c7e41d9ff4071,2020-12-22_08h37.58.426,FlowerSimilarity_Experiment,2020.1.2,Win32,60,5fe17d4a51f3a9c1a60f9869,,,,,,,,,,,,,,,,,,,2,FF,,7,1.849,,,,,,,,,,,,,,,,,,,,,,,,,,,,,,,,,,42,59,1,0,0,response1disk,7,94,15,9,1,0,0,rectangle,15,9,1,0,0,,1,7,"[183,71,266,47,300,1,258,230,220,43,241,19,177,157,157,211,47,295,263,268]",15,9,1,0,0,,0,93,93,63,1,,,,,,,,,,,,,,,,,,,,,
,,,,,,,,,,,,,,,,,,,,,,,,,,,,,,,,,,,,,,,,,,,57cb267a648ff4000166658d,5fe19436509c7e41d9ff4071,2020-12-22_08h37.58.426,FlowerSimilarity_Experiment,2020.1.2,Win32,60,5fe17d4a51f3a9c1a60f9869,,,,,,,,,,,,,,,,,,,3,PF,,7,1.434,,,,,,,,,,,,,,,,,,,,,,,,,,,,,,,,,,37,83,1,0,0,response1disk,1,95,5,1,1,0,0,rectangle,5,1,1,0,0,,1,3,"[183,71,266,47,300,1,258,230,220,43,241,19,177,157,157,211,47,295,263,268]",5,1,1,0,0,,0,94,94,96,1,,,,,,,,,,,,,,,,,,,,,
,,,,,,,,,,,,,,,,,,,,,,,,,,,,,,,,,,,,,,,,,,,57cb267a648ff4000166658d,5fe19436509c7e41d9ff4071,2020-12-22_08h37.58.426,FlowerSimilarity_Experiment,2020.1.2,Win32,60,5fe17d4a51f3a9c1a60f9869,,,,,,,,,,,,,,,,,,,1,PF,,6,1.95,,,,,,,,,,,,,,,,,,,,,,,,,,,,,,,,,,79,35,1,0,0,response1disk,9,96,8,-5,1,0,0,rectangle,8,-5,1,0,0,,1,5,"[183,71,266,47,300,1,258,230,220,43,241,19,177,157,157,211,47,295,263,268]",8,-5,1,0,0,,0,95,95,15,1,,,,,,,,,,,,,,,,,,,,,
,,,,,,,,,,,,,,,,,,,,,,,,,,,,,,,,,,,,,,,,,,,57cb267a648ff4000166658d,5fe19436509c7e41d9ff4071,2020-12-22_08h37.58.426,FlowerSimilarity_Experiment,2020.1.2,Win32,60,5fe17d4a51f3a9c1a60f9869,,,,,,,,,,,,,,,,,,,2,FF,,7,1.666,,,,,,,,,,,,,,,,,,,,,,,,,,,,,,,,,,39,65,1,0,0,response1disk,1,97,4,6,1,0,0,rectangle,4,6,1,0,0,,1,4,"[183,71,266,47,300,1,258,230,220,43,241,19,177,157,157,211,47,295,263,268]",4,6,1,0,0,,0,96,96,85,1,,,,,,,,,,,,,,,,,,,,,
,,,,,,,,,,,,,,,,,,,,,,,,,,,,,,,,,,,,,,,,,,,57cb267a648ff4000166658d,5fe19436509c7e41d9ff4071,2020-12-22_08h37.58.426,FlowerSimilarity_Experiment,2020.1.2,Win32,60,5fe17d4a51f3a9c1a60f9869,,,,,,,,,,,,,,,,,,,3,FF,,0,2.05,,,,,,,,,,,,,,,,,,,,,,,,,,,,,,,,,,-38,56,1,0,0,response7disk,3,98,9,-6,1,0,0,rectangle,9,-6,1,0,0,,1,2,"[183,71,266,47,300,1,258,230,220,43,241,19,177,157,157,211,47,295,263,268]",9,-6,1,0,0,,0,97,97,68,1,,,,,,,,,,,,,,,,,,,,,
,,,,,,,,,,,,,,,,,,,,,,,,,,,,,,,,,,,,,,,,,,,57cb267a648ff4000166658d,5fe19436509c7e41d9ff4071,2020-12-22_08h37.58.426,FlowerSimilarity_Experiment,2020.1.2,Win32,60,5fe17d4a51f3a9c1a60f9869,,,,,,,,,,,,,,,,,,,2,PF,,7,6.034,,,,,,,,,,,,,,,,,,,,,,,,,,,,,,,,,,49,109,1,0,0,response1disk,8,99,-16,-1,1,0,0,rectangle,-16,-1,1,0,0,,1,5,"[183,71,266,47,300,1,258,230,220,43,241,19,177,157,157,211,47,295,263,268]",-16,-1,1,0,0,,0,98,98,52,1,,,,,,,,,,,,,,,,,,,,,
,,,,,,,,,,,,,,,,,,,,,,,,,,,,,,,,,,,,,,,,,,,57cb267a648ff4000166658d,5fe19436509c7e41d9ff4071,2020-12-22_08h37.58.426,FlowerSimilarity_Experiment,2020.1.2,Win32,60,5fe17d4a51f3a9c1a60f9869,,,,,,,,,,,,,,,,,,,4,FF,,6,4.7,,,,,,,,,,,,,,,,,,,,,,,,,,,,,,,,,,68,43,1,0,0,response1disk,2,100,3,1,1,0,0,rectangle,3,1,1,0,0,,1,7,"[183,71,266,47,300,1,258,230,220,43,241,19,177,157,157,211,47,295,263,268]",3,1,1,0,0,,0,99,99,13,1,,,,,,,,,,,,,,,,,,,,,
,,,,,,,,,,,,,,,,,,,,,,,,,,,,,,,,,,,,,,,,,,,57cb267a648ff4000166658d,5fe19436509c7e41d9ff4071,2020-12-22_08h37.58.426,FlowerSimilarity_Experiment,2020.1.2,Win32,60,5fe17d4a51f3a9c1a60f9869,,,,,,,,,,,,,,,,,,,8,FF,,3,6.001,,,,,,,,,,,,,,,,,,,,,,,,,,,,,,,,,,-33,-79,1,0,0,response5disk,5,101,5,6,1,0,0,rectangle,5,6,1,0,0,,1,1,"[183,71,266,47,300,1,258,230,220,43,241,19,177,157,157,211,47,295,263,268]",5,6,1,0,0,,0,100,100,152,1,,,,,,,,,,,,,,,,,,,,,
,,,,,,,,,,,,,,,,,,,,,,,,,,,,,,,,,,,,,,,,,,,57cb267a648ff4000166658d,5fe19436509c7e41d9ff4071,2020-12-22_08h37.58.426,FlowerSimilarity_Experiment,2020.1.2,Win32,60,5fe17d4a51f3a9c1a60f9869,,,,,,,,,,,,,,,,,,,4,PF,,5,2.516,,,,,,,,,,,,,,,,,,,,,,,,,,,,,,,,,,69,-37,1,0,0,response3disk,7,102,1,1,1,0,0,rectangle,1,1,1,0,0,,1,3,"[183,71,266,47,300,1,258,230,220,43,241,19,177,157,157,211,47,295,263,268]",1,1,1,0,0,,0,101,101,38,1,,,,,,,,,,,,,,,,,,,,,
,,,,,,,,,,,,,,,,,,,,,,,,,,,,,,,,,,,,,,,,,,,57cb267a648ff4000166658d,5fe19436509c7e41d9ff4071,2020-12-22_08h37.58.426,FlowerSimilarity_Experiment,2020.1.2,Win32,60,5fe17d4a51f3a9c1a60f9869,,,,,,,,,,,,,,,,,,,8,FF,,5,2.05,,,,,,,,,,,,,,,,,,,,,,,,,,,,,,,,,,97,-47,1,0,0,response3disk,3,103,6,0,1,0,0,rectangle,6,0,1,0,0,,1,3,"[183,71,266,47,300,1,258,230,220,43,241,19,177,157,157,211,47,295,263,268]",6,0,1,0,0,,0,102,102,154,1,,,,,,,,,,,,,,,,,,,,,
,,,,,,,,,,,,,,,,,,,,,,,,,,,,,,,,,,,,,,,,,,,57cb267a648ff4000166658d,5fe19436509c7e41d9ff4071,2020-12-22_08h37.58.426,FlowerSimilarity_Experiment,2020.1.2,Win32,60,5fe17d4a51f3a9c1a60f9869,,,,,,,,,,,,,,,,,,,2,PF,,1,2.384,,,,,,,,,,,,,,,,,,,,,,,,,,,,,,,,,,-85,21,1,0,0,response7disk,2,104,1,4,1,0,0,rectangle,1,4,1,0,0,,1,5,"[183,71,266,47,300,1,258,230,220,43,241,19,177,157,157,211,47,295,263,268]",1,4,1,0,0,,0,103,103,14,1,,,,,,,,,,,,,,,,,,,,,
,,,,,,,,,,,,,,,,,,,,,,,,,,,,,,,,,,,,,,,,,,,57cb267a648ff4000166658d,5fe19436509c7e41d9ff4071,2020-12-22_08h37.58.426,FlowerSimilarity_Experiment,2020.1.2,Win32,60,5fe17d4a51f3a9c1a60f9869,,,,,,,,,,,,,,,,,,,1,PF,,7,1.75,,,,,,,,,,,,,,,,,,,,,,,,,,,,,,,,,,48,75,1,0,0,response1disk,5,105,6,-1,1,0,0,rectangle,6,-1,1,0,0,,1,6,"[183,71,266,47,300,1,258,230,220,43,241,19,177,157,157,211,47,295,263,268]",6,-1,1,0,0,,0,104,104,28,1,,,,,,,,,,,,,,,,,,,,,
,,,,,,,,,,,,,,,,,,,,,,,,,,,,,,,,,,,,,,,,,,,57cb267a648ff4000166658d,5fe19436509c7e41d9ff4071,2020-12-22_08h37.58.426,FlowerSimilarity_Experiment,2020.1.2,Win32,60,5fe17d4a51f3a9c1a60f9869,,,,,,,,,,,,,,,,,,,3,PF,,2,4.198,,,,,,,,,,,,,,,,,,,,,,,,,,,,,,,,,,-81,-27,1,0,0,response5disk,3,106,-7,-1,1,0,0,rectangle,-7,-1,1,0,0,,1,7,"[183,71,266,47,300,1,258,230,220,43,241,19,177,157,157,211,47,295,263,268]",-7,-1,1,0,0,,0,105,105,4,1,,,,,,,,,,,,,,,,,,,,,
,,,,,,,,,,,,,,,,,,,,,,,,,,,,,,,,,,,,,,,,,,,57cb267a648ff4000166658d,5fe19436509c7e41d9ff4071,2020-12-22_08h37.58.426,FlowerSimilarity_Experiment,2020.1.2,Win32,60,5fe17d4a51f3a9c1a60f9869,,,,,,,,,,,,,,,,,,,1,FF,,2,1.917,,,,,,,,,,,,,,,,,,,,,,,,,,,,,,,,,,-79,-43,1,0,0,response5disk,9,107,-4,3,1,0,0,rectangle,-4,3,1,0,0,,1,4,"[183,71,266,47,300,1,258,230,220,43,241,19,177,157,157,211,47,295,263,268]",-4,3,1,0,0,,0,106,106,123,1,,,,,,,,,,,,,,,,,,,,,
,,,,,,,,,,,,,,,,,,,,,,,,,,,,,,,,,,,,,,,,,,,57cb267a648ff4000166658d,5fe19436509c7e41d9ff4071,2020-12-22_08h37.58.426,FlowerSimilarity_Experiment,2020.1.2,Win32,60,5fe17d4a51f3a9c1a60f9869,,,,,,,,,,,,,,,,,,,9,FF,,7,1.567,,,,,,,,,,,,,,,,,,,,,,,,,,,,,,,,,,41,77,1,0,0,response1disk,8,108,3,-1,1,0,0,rectangle,3,-1,1,0,0,,1,1,"[183,71,266,47,300,1,258,230,220,43,241,19,177,157,157,211,47,295,263,268]",3,-1,1,0,0,,0,107,107,6,1,,,,,,,,,,,,,,,,,,,,,
,,,,,,,,,,,,,,,,,,,,,,,,,,,,,,,,,,,,,,,,,,,57cb267a648ff4000166658d,5fe19436509c7e41d9ff4071,2020-12-22_08h37.58.426,FlowerSimilarity_Experiment,2020.1.2,Win32,60,5fe17d4a51f3a9c1a60f9869,,,,,,,,,,,,,,,,,,,5,PF,,7,1.533,,,,,,,,,,,,,,,,,,,,,,,,,,,,,,,,,,39,63,1,0,0,response1disk,4,109,7,9,1,0,0,rectangle,7,9,1,0,0,,1,6,"[183,71,266,47,300,1,258,230,220,43,241,19,177,157,157,211,47,295,263,268]",7,9,1,0,0,,0,108,108,54,1,,,,,,,,,,,,,,,,,,,,,
,,,,,,,,,,,,,,,,,,,,,,,,,,,,,,,,,,,,,,,,,,,57cb267a648ff4000166658d,5fe19436509c7e41d9ff4071,2020-12-22_08h37.58.426,FlowerSimilarity_Experiment,2020.1.2,Win32,60,5fe17d4a51f3a9c1a60f9869,,,,,,,,,,,,,,,,,,,2,PF,,7,4.034,,,,,,,,,,,,,,,,,,,,,,,,,,,,,,,,,,37,73,1,0,0,response1disk,7,110,-3,1,1,0,0,rectangle,-3,1,1,0,0,,1,1,"[183,71,266,47,300,1,258,230,220,43,241,19,177,157,157,211,47,295,263,268]",-3,1,1,0,0,,0,109,109,107,1,,,,,,,,,,,,,,,,,,,,,
,,,,,,,,,,,,,,,,,,,,,,,,,,,,,,,,,,,,,,,,,,,57cb267a648ff4000166658d,5fe19436509c7e41d9ff4071,2020-12-22_08h37.58.426,FlowerSimilarity_Experiment,2020.1.2,Win32,60,5fe17d4a51f3a9c1a60f9869,,,,,,,,,,,,,,,,,,,8,PF,,7,1.95,,,,,,,,,,,,,,,,,,,,,,,,,,,,,,,,,,35,54,1,0,0,response1disk,9,111,7,-3,1,0,0,rectangle,7,-3,1,0,0,,1,0,"[183,71,266,47,300,1,258,230,220,43,241,19,177,157,157,211,47,295,263,268]",7,-3,1,0,0,,0,110,110,42,1,,,,,,,,,,,,,,,,,,,,,
,,,,,,,,,,,,,,,,,,,,,,,,,,,,,,,,,,,,,,,,,,,57cb267a648ff4000166658d,5fe19436509c7e41d9ff4071,2020-12-22_08h37.58.426,FlowerSimilarity_Experiment,2020.1.2,Win32,60,5fe17d4a51f3a9c1a60f9869,,,,,,,,,,,,,,,,,,,9,PF,,7,1.684,,,,,,,,,,,,,,,,,,,,,,,,,,,,,,,,,,40,66,1,0,0,response1disk,3,112,8,7,1,0,0,rectangle,8,7,1,0,0,,1,1,"[183,71,266,47,300,1,258,230,220,43,241,19,177,157,157,211,47,295,263,268]",8,7,1,0,0,,0,111,111,119,1,,,,,,,,,,,,,,,,,,,,,
,,,,,,,,,,,,,,,,,,,,,,,,,,,,,,,,,,,,,,,,,,,57cb267a648ff4000166658d,5fe19436509c7e41d9ff4071,2020-12-22_08h37.58.426,FlowerSimilarity_Experiment,2020.1.2,Win32,60,5fe17d4a51f3a9c1a60f9869,,,,,,,,,,,,,,,,,,,8,PF,,6,2.217,,,,,,,,,,,,,,,,,,,,,,,,,,,,,,,,,,55,37,1,0,0,response1disk,6,113,8,3,1,0,0,rectangle,8,3,1,0,0,,1,4,"[183,71,266,47,300,1,258,230,220,43,241,19,177,157,157,211,47,295,263,268]",8,3,1,0,0,,0,112,112,161,1,,,,,,,,,,,,,,,,,,,,,
,,,,,,,,,,,,,,,,,,,,,,,,,,,,,,,,,,,,,,,,,,,57cb267a648ff4000166658d,5fe19436509c7e41d9ff4071,2020-12-22_08h37.58.426,FlowerSimilarity_Experiment,2020.1.2,Win32,60,5fe17d4a51f3a9c1a60f9869,,,,,,,,,,,,,,,,,,,7,PF,,7,1.384,,,,,,,,,,,,,,,,,,,,,,,,,,,,,,,,,,35,82,1,0,0,response1disk,9,114,-4,4,1,0,0,rectangle,-4,4,1,0,0,,1,1,"[183,71,266,47,300,1,258,230,220,43,241,19,177,157,157,211,47,295,263,268]",-4,4,1,0,0,,0,113,113,10,1,,,,,,,,,,,,,,,,,,,,,
,,,,,,,,,,,,,,,,,,,,,,,,,,,,,,,,,,,,,,,,,,,57cb267a648ff4000166658d,5fe19436509c7e41d9ff4071,2020-12-22_08h37.58.426,FlowerSimilarity_Experiment,2020.1.2,Win32,60,5fe17d4a51f3a9c1a60f9869,,,,,,,,,,,,,,,,,,,5,PF,,1,2.366,,,,,,,,,,,,,,,,,,,,,,,,,,,,,,,,,,-74,32,1,0,0,response7disk,5,115,12,2,1,0,0,rectangle,12,2,1,0,0,,1,7,"[183,71,266,47,300,1,258,230,220,43,241,19,177,157,157,211,47,295,263,268]",12,2,1,0,0,,0,114,114,94,1,,,,,,,,,,,,,,,,,,,,,
,,,,,,,,,,,,,,,,,,,,,,,,,,,,,,,,,,,,,,,,,,,57cb267a648ff4000166658d,5fe19436509c7e41d9ff4071,2020-12-22_08h37.58.426,FlowerSimilarity_Experiment,2020.1.2,Win32,60,5fe17d4a51f3a9c1a60f9869,,,,,,,,,,,,,,,,,,,8,PF,,4,2.383,,,,,,,,,,,,,,,,,,,,,,,,,,,,,,,,,,43,-89,1,0,0,response3disk,7,116,14,-5,1,0,0,rectangle,14,-5,1,0,0,,1,3,"[183,71,266,47,300,1,258,230,220,43,241,19,177,157,157,211,47,295,263,268]",14,-5,1,0,0,,0,115,115,23,1,,,,,,,,,,,,,,,,,,,,,
,,,,,,,,,,,,,,,,,,,,,,,,,,,,,,,,,,,,,,,,,,,57cb267a648ff4000166658d,5fe19436509c7e41d9ff4071,2020-12-22_08h37.58.426,FlowerSimilarity_Experiment,2020.1.2,Win32,60,5fe17d4a51f3a9c1a60f9869,,,,,,,,,,,,,,,,,,,5,FF,,4,1.684,,,,,,,,,,,,,,,,,,,,,,,,,,,,,,,,,,43,-86,1,0,0,response3disk,3,117,11,-3,1,0,0,rectangle,11,-3,1,0,0,,1,0,"[183,71,266,47,300,1,258,230,220,43,241,19,177,157,157,211,47,295,263,268]",11,-3,1,0,0,,0,116,116,25,1,,,,,,,,,,,,,,,,,,,,,
,,,,,,,,,,,,,,,,,,,,,,,,,,,,,,,,,,,,,,,,,,,57cb267a648ff4000166658d,5fe19436509c7e41d9ff4071,2020-12-22_08h37.58.426,FlowerSimilarity_Experiment,2020.1.2,Win32,60,5fe17d4a51f3a9c1a60f9869,,,,,,,,,,,,,,,,,,,7,PF,,7,1.484,,,,,,,,,,,,,,,,,,,,,,,,,,,,,,,,,,37,84,1,0,0,response1disk,1,118,1,-3,1,0,0,rectangle,1,-3,1,0,0,,1,5,"[183,71,266,47,300,1,258,230,220,43,241,19,177,157,157,211,47,295,263,268]",1,-3,1,0,0,,0,117,117,53,1,,,,,,,,,,,,,,,,,,,,,
,,,,,,,,,,,,,,,,,,,,,,,,,,,,,,,,,,,,,,,,,,,57cb267a648ff4000166658d,5fe19436509c7e41d9ff4071,2020-12-22_08h37.58.426,FlowerSimilarity_Experiment,2020.1.2,Win32,60,5fe17d4a51f3a9c1a60f9869,,,,,,,,,,,,,,,,,,,5,PF,,5,3.084,,,,,,,,,,,,,,,,,,,,,,,,,,,,,,,,,,95,-48,1,0,0,response3disk,3,119,23,-8,1,0,0,rectangle,23,-8,1,0,0,,1,1,"[183,71,266,47,300,1,258,230,220,43,241,19,177,157,157,211,47,295,263,268]",23,-8,1,0,0,,0,118,118,109,1,,,,,,,,,,,,,,,,,,,,,
,,,,,,,,,,,,,,,,,,,,,,,,,,,,,,,,,,,,,,,,,,,57cb267a648ff4000166658d,5fe19436509c7e41d9ff4071,2020-12-22_08h37.58.426,FlowerSimilarity_Experiment,2020.1.2,Win32,60,5fe17d4a51f3a9c1a60f9869,,,,,,,,,,,,,,,,,,,6,FF,,6,2.85,,,,,,,,,,,,,,,,,,,,,,,,,,,,,,,,,,77,36,1,0,0,response1disk,5,120,9,-7,1,0,0,rectangle,9,-7,1,0,0,,1,4,"[183,71,266,47,300,1,258,230,220,43,241,19,177,157,157,211,47,295,263,268]",9,-7,1,0,0,,0,119,119,126,1,,,,,,,,,,,,,,,,,,,,,
,,,,,,,,,,,,,,,,,,,,,,,,,,,,,,,,,,,,,,,,,,,57cb267a648ff4000166658d,5fe19436509c7e41d9ff4071,2020-12-22_08h37.58.426,FlowerSimilarity_Experiment,2020.1.2,Win32,60,5fe17d4a51f3a9c1a60f9869,,,,,,,,,,,,,,,,,,,4,PF,,7,1.55,,,,,,,,,,,,,,,,,,,,,,,,,,,,,,,,,,34,72,1,0,0,response1disk,1,121,4,0,1,0,0,rectangle,4,0,1,0,0,,1,4,"[183,71,266,47,300,1,258,230,220,43,241,19,177,157,157,211,47,295,263,268]",4,0,1,0,0,,0,120,120,115,1,,,,,,,,,,,,,,,,,,,,,
,,,,,,,,,,,,,,,,,,,,,,,,,,,,,,,,,,,,,,,,,,,57cb267a648ff4000166658d,5fe19436509c7e41d9ff4071,2020-12-22_08h37.58.426,FlowerSimilarity_Experiment,2020.1.2,Win32,60,5fe17d4a51f3a9c1a60f9869,,,,,,,,,,,,,,,,,,,2,FF,,0,1.567,,,,,,,,,,,,,,,,,,,,,,,,,,,,,,,,,,-24,55,1,0,0,response7disk,2,122,11,-3,1,0,0,rectangle,11,-3,1,0,0,,1,7,"[183,71,266,47,300,1,258,230,220,43,241,19,177,157,157,211,47,295,263,268]",11,-3,1,0,0,,0,121,121,142,1,,,,,,,,,,,,,,,,,,,,,
,,,,,,,,,,,,,,,,,,,,,,,,,,,,,,,,,,,,,,,,,,,57cb267a648ff4000166658d,5fe19436509c7e41d9ff4071,2020-12-22_08h37.58.426,FlowerSimilarity_Experiment,2020.1.2,Win32,60,5fe17d4a51f3a9c1a60f9869,,,,,,,,,,,,,,,,,,,4,PF,,7,1.683,,,,,,,,,,,,,,,,,,,,,,,,,,,,,,,,,,48,94,1,0,0,response1disk,6,123,-3,3,1,0,0,rectangle,-3,3,1,0,0,,1,7,"[183,71,266,47,300,1,258,230,220,43,241,19,177,157,157,211,47,295,263,268]",-3,3,1,0,0,,0,122,122,120,1,,,,,,,,,,,,,,,,,,,,,
,,,,,,,,,,,,,,,,,,,,,,,,,,,,,,,,,,,,,,,,,,,57cb267a648ff4000166658d,5fe19436509c7e41d9ff4071,2020-12-22_08h37.58.426,FlowerSimilarity_Experiment,2020.1.2,Win32,60,5fe17d4a51f3a9c1a60f9869,,,,,,,,,,,,,,,,,,,6,FF,,7,3.434,,,,,,,,,,,,,,,,,,,,,,,,,,,,,,,,,,40,62,1,0,0,response1disk,3,124,-9,-1,1,0,0,rectangle,-9,-1,1,0,0,,1,7,"[183,71,266,47,300,1,258,230,220,43,241,19,177,157,157,211,47,295,263,268]",-9,-1,1,0,0,,0,123,123,21,1,,,,,,,,,,,,,,,,,,,,,
,,,,,,,,,,,,,,,,,,,,,,,,,,,,,,,,,,,,,,,,,,,57cb267a648ff4000166658d,5fe19436509c7e41d9ff4071,2020-12-22_08h37.58.426,FlowerSimilarity_Experiment,2020.1.2,Win32,60,5fe17d4a51f3a9c1a60f9869,,,,,,,,,,,,,,,,,,,8,PF,,0,1.667,,,,,,,,,,,,,,,,,,,,,,,,,,,,,,,,,,-33,83,1,0,0,response7disk,8,125,13,3,1,0,0,rectangle,13,3,1,0,0,,1,5,"[183,71,266,47,300,1,258,230,220,43,241,19,177,157,157,211,47,295,263,268]",13,3,1,0,0,,0,124,124,153,1,,,,,,,,,,,,,,,,,,,,,
,,,,,,,,,,,,,,,,,,,,,,,,,,,,,,,,,,,,,,,,,,,57cb267a648ff4000166658d,5fe19436509c7e41d9ff4071,2020-12-22_08h37.58.426,FlowerSimilarity_Experiment,2020.1.2,Win32,60,5fe17d4a51f3a9c1a60f9869,,,,,,,,,,,,,,,,,,,6,PF,,7,1.483,,,,,,,,,,,,,,,,,,,,,,,,,,,,,,,,,,45,87,1,0,0,response1disk,4,126,-3,2,1,0,0,rectangle,-3,2,1,0,0,,1,4,"[183,71,266,47,300,1,258,230,220,43,241,19,177,157,157,211,47,295,263,268]",-3,2,1,0,0,,0,125,125,33,1,,,,,,,,,,,,,,,,,,,,,
,,,,,,,,,,,,,,,,,,,,,,,,,,,,,,,,,,,,,,,,,,,57cb267a648ff4000166658d,5fe19436509c7e41d9ff4071,2020-12-22_08h37.58.426,FlowerSimilarity_Experiment,2020.1.2,Win32,60,5fe17d4a51f3a9c1a60f9869,,,,,,,,,,,,,,,,,,,6,PF,,7,1.551,,,,,,,,,,,,,,,,,,,,,,,,,,,,,,,,,,36,73,1,0,0,response1disk,2,127,5,-10,1,0,0,rectangle,5,-10,1,0,0,,1,5,"[183,71,266,47,300,1,258,230,220,43,241,19,177,157,157,211,47,295,263,268]",5,-10,1,0,0,,0,126,126,130,1,,,,,,,,,,,,,,,,,,,,,
,,,,,,,,,,,,,,,,,,,,,,,,,,,,,,,,,,,,,,,,,,,57cb267a648ff4000166658d,5fe19436509c7e41d9ff4071,2020-12-22_08h37.58.426,FlowerSimilarity_Experiment,2020.1.2,Win32,60,5fe17d4a51f3a9c1a60f9869,,,,,,,,,,,,,,,,,,,9,FF,,7,1.434,,,,,,,,,,,,,,,,,,,,,,,,,,,,,,,,,,21,90,1,0,0,response1disk,3,128,-4,7,1,0,0,rectangle,-4,7,1,0,0,,1,1,"[183,71,266,47,300,1,258,230,220,43,241,19,177,157,157,211,47,295,263,268]",-4,7,1,0,0,,0,127,127,141,1,,,,,,,,,,,,,,,,,,,,,
,,,,,,,,,,,,,,,,,,,,,,,,,,,,,,,,,,,,,,,,,,,57cb267a648ff4000166658d,5fe19436509c7e41d9ff4071,2020-12-22_08h37.58.426,FlowerSimilarity_Experiment,2020.1.2,Win32,60,5fe17d4a51f3a9c1a60f9869,,,,,,,,,,,,,,,,,,,5,PF,,7,1.451,,,,,,,,,,,,,,,,,,,,,,,,,,,,,,,,,,35,66,1,0,0,response1disk,9,129,12,-7,1,0,0,rectangle,12,-7,1,0,0,,1,3,"[183,71,266,47,300,1,258,230,220,43,241,19,177,157,157,211,47,295,263,268]",12,-7,1,0,0,,0,128,128,136,1,,,,,,,,,,,,,,,,,,,,,
,,,,,,,,,,,,,,,,,,,,,,,,,,,,,,,,,,,,,,,,,,,57cb267a648ff4000166658d,5fe19436509c7e41d9ff4071,2020-12-22_08h37.58.426,FlowerSimilarity_Experiment,2020.1.2,Win32,60,5fe17d4a51f3a9c1a60f9869,,,,,,,,,,,,,,,,,,,3,FF,,7,2.134,,,,,,,,,,,,,,,,,,,,,,,,,,,,,,,,,,43,82,1,0,0,response1disk,6,130,8,-3,1,0,0,rectangle,8,-3,1,0,0,,1,5,"[183,71,266,47,300,1,258,230,220,43,241,19,177,157,157,211,47,295,263,268]",8,-3,1,0,0,,0,129,129,95,1,,,,,,,,,,,,,,,,,,,,,
,,,,,,,,,,,,,,,,,,,,,,,,,,,,,,,,,,,,,,,,,,,57cb267a648ff4000166658d,5fe19436509c7e41d9ff4071,2020-12-22_08h37.58.426,FlowerSimilarity_Experiment,2020.1.2,Win32,60,5fe17d4a51f3a9c1a60f9869,,,,,,,,,,,,,,,,,,,4,FF,,7,1.4,,,,,,,,,,,,,,,,,,,,,,,,,,,,,,,,,,45,79,1,0,0,response1disk,1,131,4,-1,1,0,0,rectangle,4,-1,1,0,0,,1,6,"[183,71,266,47,300,1,258,230,220,43,241,19,177,157,157,211,47,295,263,268]",4,-1,1,0,0,,0,130,130,102,1,,,,,,,,,,,,,,,,,,,,,
,,,,,,,,,,,,,,,,,,,,,,,,,,,,,,,,,,,,,,,,,,,57cb267a648ff4000166658d,5fe19436509c7e41d9ff4071,2020-12-22_08h37.58.426,FlowerSimilarity_Experiment,2020.1.2,Win32,60,5fe17d4a51f3a9c1a60f9869,,,,,,,,,,,,,,,,,,,7,PF,,7,1.534,,,,,,,,,,,,,,,,,,,,,,,,,,,,,,,,,,55,81,1,0,0,response1disk,5,132,6,-3,1,0,0,rectangle,6,-3,1,0,0,,1,5,"[183,71,266,47,300,1,258,230,220,43,241,19,177,157,157,211,47,295,263,268]",6,-3,1,0,0,,0,131,131,92,1,,,,,,,,,,,,,,,,,,,,,
,,,,,,,,,,,,,,,,,,,,,,,,,,,,,,,,,,,,,,,,,,,57cb267a648ff4000166658d,5fe19436509c7e41d9ff4071,2020-12-22_08h37.58.426,FlowerSimilarity_Experiment,2020.1.2,Win32,60,5fe17d4a51f3a9c1a60f9869,,,,,,,,,,,,,,,,,,,6,PF,,7,1.767,,,,,,,,,,,,,,,,,,,,,,,,,,,,,,,,,,43,75,1,0,0,response1disk,8,133,11,-1,1,0,0,rectangle,11,-1,1,0,0,,1,0,"[183,71,266,47,300,1,258,230,220,43,241,19,177,157,157,211,47,295,263,268]",11,-1,1,0,0,,0,132,132,64,1,,,,,,,,,,,,,,,,,,,,,
,,,,,,,,,,,,,,,,,,,,,,,,,,,,,,,,,,,,,,,,,,,57cb267a648ff4000166658d,5fe19436509c7e41d9ff4071,2020-12-22_08h37.58.426,FlowerSimilarity_Experiment,2020.1.2,Win32,60,5fe17d4a51f3a9c1a60f9869,,,,,,,,,,,,,,,,,,,9,FF,,7,1.651,,,,,,,,,,,,,,,,,,,,,,,,,,,,,,,,,,47,79,1,0,0,response1disk,7,134,11,7,1,0,0,rectangle,11,7,1,0,0,,1,3,"[183,71,266,47,300,1,258,230,220,43,241,19,177,157,157,211,47,295,263,268]",11,7,1,0,0,,0,133,133,100,1,,,,,,,,,,,,,,,,,,,,,
,,,,,,,,,,,,,,,,,,,,,,,,,,,,,,,,,,,,,,,,,,,57cb267a648ff4000166658d,5fe19436509c7e41d9ff4071,2020-12-22_08h37.58.426,FlowerSimilarity_Experiment,2020.1.2,Win32,60,5fe17d4a51f3a9c1a60f9869,,,,,,,,,,,,,,,,,,,9,PF,,7,1.417,,,,,,,,,,,,,,,,,,,,,,,,,,,,,,,,,,39,84,1,0,0,response1disk,7,135,11,3,1,0,0,rectangle,11,3,1,0,0,,1,3,"[183,71,266,47,300,1,258,230,220,43,241,19,177,157,157,211,47,295,263,268]",11,3,1,0,0,,0,134,134,121,1,,,,,,,,,,,,,,,,,,,,,
,,,,,,,,,,,,,,,,,,,,,,,,,,,,,,,,,,,,,,,,,,,57cb267a648ff4000166658d,5fe19436509c7e41d9ff4071,2020-12-22_08h37.58.426,FlowerSimilarity_Experiment,2020.1.2,Win32,60,5fe17d4a51f3a9c1a60f9869,,,,,,,,,,,,,,,,,,,8,FF,,7,2.216,,,,,,,,,,,,,,,,,,,,,,,,,,,,,,,,,,36,69,1,0,0,response1disk,2,136,14,3,1,0,0,rectangle,14,3,1,0,0,,1,1,"[183,71,266,47,300,1,258,230,220,43,241,19,177,157,157,211,47,295,263,268]",14,3,1,0,0,,0,135,135,22,1,,,,,,,,,,,,,,,,,,,,,
,,,,,,,,,,,,,,,,,,,,,,,,,,,,,,,,,,,,,,,,,,,57cb267a648ff4000166658d,5fe19436509c7e41d9ff4071,2020-12-22_08h37.58.426,FlowerSimilarity_Experiment,2020.1.2,Win32,60,5fe17d4a51f3a9c1a60f9869,,,,,,,,,,,,,,,,,,,1,FF,,0,1.55,,,,,,,,,,,,,,,,,,,,,,,,,,,,,,,,,,-33,64,1,0,0,response7disk,1,137,2,-3,1,0,0,rectangle,2,-3,1,0,0,,1,5,"[183,71,266,47,300,1,258,230,220,43,241,19,177,157,157,211,47,295,263,268]",2,-3,1,0,0,,0,136,136,151,1,,,,,,,,,,,,,,,,,,,,,
,,,,,,,,,,,,,,,,,,,,,,,,,,,,,,,,,,,,,,,,,,,57cb267a648ff4000166658d,5fe19436509c7e41d9ff4071,2020-12-22_08h37.58.426,FlowerSimilarity_Experiment,2020.1.2,Win32,60,5fe17d4a51f3a9c1a60f9869,,,,,,,,,,,,,,,,,,,9,FF,,7,1.684,,,,,,,,,,,,,,,,,,,,,,,,,,,,,,,,,,36,59,1,0,0,response1disk,4,138,9,5,1,0,0,rectangle,9,5,1,0,0,,1,7,"[183,71,266,47,300,1,258,230,220,43,241,19,177,157,157,211,47,295,263,268]",9,5,1,0,0,,0,137,137,60,1,,,,,,,,,,,,,,,,,,,,,
,,,,,,,,,,,,,,,,,,,,,,,,,,,,,,,,,,,,,,,,,,,57cb267a648ff4000166658d,5fe19436509c7e41d9ff4071,2020-12-22_08h37.58.426,FlowerSimilarity_Experiment,2020.1.2,Win32,60,5fe17d4a51f3a9c1a60f9869,,,,,,,,,,,,,,,,,,,7,PF,,0,1.401,,,,,,,,,,,,,,,,,,,,,,,,,,,,,,,,,,-28,65,1,0,0,response7disk,7,139,15,2,1,0,0,rectangle,15,2,1,0,0,,1,6,"[183,71,266,47,300,1,258,230,220,43,241,19,177,157,157,211,47,295,263,268]",15,2,1,0,0,,0,138,138,51,1,,,,,,,,,,,,,,,,,,,,,
,,,,,,,,,,,,,,,,,,,,,,,,,,,,,,,,,,,,,,,,,,,57cb267a648ff4000166658d,5fe19436509c7e41d9ff4071,2020-12-22_08h37.58.426,FlowerSimilarity_Experiment,2020.1.2,Win32,60,5fe17d4a51f3a9c1a60f9869,,,,,,,,,,,,,,,,,,,4,PF,,0,1.65,,,,,,,,,,,,,,,,,,,,,,,,,,,,,,,,,,-38,61,1,0,0,response7disk,4,140,-1,-1,1,0,0,rectangle,-1,-1,1,0,0,,1,0,"[183,71,266,47,300,1,258,230,220,43,241,19,177,157,157,211,47,295,263,268]",-1,-1,1,0,0,,0,139,139,70,1,,,,,,,,,,,,,,,,,,,,,
,,,,,,,,,,,,,,,,,,,,,,,,,,,,,,,,,,,,,,,,,,,57cb267a648ff4000166658d,5fe19436509c7e41d9ff4071,2020-12-22_08h37.58.426,FlowerSimilarity_Experiment,2020.1.2,Win32,60,5fe17d4a51f3a9c1a60f9869,,,,,,,,,,,,,,,,,,,9,PF,,2,2.467,,,,,,,,,,,,,,,,,,,,,,,,,,,,,,,,,,-81,-55,1,0,0,response5disk,1,141,-1,2,1,0,0,rectangle,-1,2,1,0,0,,1,2,"[183,71,266,47,300,1,258,230,220,43,241,19,177,157,157,211,47,295,263,268]",-1,2,1,0,0,,0,140,140,74,1,,,,,,,,,,,,,,,,,,,,,
,,,,,,,,,,,,,,,,,,,,,,,,,,,,,,,,,,,,,,,,,,,57cb267a648ff4000166658d,5fe19436509c7e41d9ff4071,2020-12-22_08h37.58.426,FlowerSimilarity_Experiment,2020.1.2,Win32,60,5fe17d4a51f3a9c1a60f9869,,,,,,,,,,,,,,,,,,,5,PF,,7,1.716,,,,,,,,,,,,,,,,,,,,,,,,,,,,,,,,,,51,65,1,0,0,response1disk,1,142,5,5,1,0,0,rectangle,5,5,1,0,0,,1,3,"[183,71,266,47,300,1,258,230,220,43,241,19,177,157,157,211,47,295,263,268]",5,5,1,0,0,,0,141,141,159,1,,,,,,,,,,,,,,,,,,,,,
,,,,,,,,,,,,,,,,,,,,,,,,,,,,,,,,,,,,,,,,,,,57cb267a648ff4000166658d,5fe19436509c7e41d9ff4071,2020-12-22_08h37.58.426,FlowerSimilarity_Experiment,2020.1.2,Win32,60,5fe17d4a51f3a9c1a60f9869,,,,,,,,,,,,,,,,,,,2,PF,,7,1.699,,,,,,,,,,,,,,,,,,,,,,,,,,,,,,,,,,41,61,1,0,0,response1disk,4,143,3,7,1,0,0,rectangle,3,7,1,0,0,,1,6,"[183,71,266,47,300,1,258,230,220,43,241,19,177,157,157,211,47,295,263,268]",3,7,1,0,0,,0,142,142,127,1,,,,,,,,,,,,,,,,,,,,,
,,,,,,,,,,,,,,,,,,,,,,,,,,,,,,,,,,,,,,,,,,,57cb267a648ff4000166658d,5fe19436509c7e41d9ff4071,2020-12-22_08h37.58.426,FlowerSimilarity_Experiment,2020.1.2,Win32,60,5fe17d4a51f3a9c1a60f9869,,,,,,,,,,,,,,,,,,,5,PF,,6,1.934,,,,,,,,,,,,,,,,,,,,,,,,,,,,,,,,,,69,31,1,0,0,response1disk,7,144,13,5,1,0,0,rectangle,13,5,1,0,0,,1,0,"[183,71,266,47,300,1,258,230,220,43,241,19,177,157,157,211,47,295,263,268]",13,5,1,0,0,,0,143,143,146,1,,,,,,,,,,,,,,,,,,,,,
,,,,,,,,,,,,,,,,,,,,,,,,,,,,,,,,,,,,,,,,,,,57cb267a648ff4000166658d,5fe19436509c7e41d9ff4071,2020-12-22_08h37.58.426,FlowerSimilarity_Experiment,2020.1.2,Win32,60,5fe17d4a51f3a9c1a60f9869,,,,,,,,,,,,,,,,,,,4,PF,,7,1.866,,,,,,,,,,,,,,,,,,,,,,,,,,,,,,,,,,35,51,1,0,0,response1disk,5,145,8,-2,1,0,0,rectangle,8,-2,1,0,0,,1,3,"[183,71,266,47,300,1,258,230,220,43,241,19,177,157,157,211,47,295,263,268]",8,-2,1,0,0,,0,144,144,49,1,,,,,,,,,,,,,,,,,,,,,
,,,,,,,,,,,,,,,,,,,,,,,,,,,,,,,,,,,,,,,,,,,57cb267a648ff4000166658d,5fe19436509c7e41d9ff4071,2020-12-22_08h37.58.426,FlowerSimilarity_Experiment,2020.1.2,Win32,60,5fe17d4a51f3a9c1a60f9869,,,,,,,,,,,,,,,,,,,3,PF,,7,3.199,,,,,,,,,,,,,,,,,,,,,,,,,,,,,,,,,,38,53,1,0,0,response1disk,2,146,-1,-1,1,0,0,rectangle,-1,-1,1,0,0,,1,4,"[183,71,266,47,300,1,258,230,220,43,241,19,177,157,157,211,47,295,263,268]",-1,-1,1,0,0,,0,145,145,36,1,,,,,,,,,,,,,,,,,,,,,
,,,,,,,,,,,,,,,,,,,,,,,,,,,,,,,,,,,,,,,,,,,57cb267a648ff4000166658d,5fe19436509c7e41d9ff4071,2020-12-22_08h37.58.426,FlowerSimilarity_Experiment,2020.1.2,Win32,60,5fe17d4a51f3a9c1a60f9869,,,,,,,,,,,,,,,,,,,7,FF,,6,2.116,,,,,,,,,,,,,,,,,,,,,,,,,,,,,,,,,,59,29,1,0,0,response1disk,8,147,1,7,1,0,0,rectangle,1,7,1,0,0,,1,1,"[183,71,266,47,300,1,258,230,220,43,241,19,177,157,157,211,47,295,263,268]",1,7,1,0,0,,0,146,146,97,1,,,,,,,,,,,,,,,,,,,,,
,,,,,,,,,,,,,,,,,,,,,,,,,,,,,,,,,,,,,,,,,,,57cb267a648ff4000166658d,5fe19436509c7e41d9ff4071,2020-12-22_08h37.58.426,FlowerSimilarity_Experiment,2020.1.2,Win32,60,5fe17d4a51f3a9c1a60f9869,,,,,,,,,,,,,,,,,,,3,PF,,7,2.617,,,,,,,,,,,,,,,,,,,,,,,,,,,,,,,,,,43,58,1,0,0,response1disk,4,148,1,-9,1,0,0,rectangle,1,-9,1,0,0,,1,2,"[183,71,266,47,300,1,258,230,220,43,241,19,177,157,157,211,47,295,263,268]",1,-9,1,0,0,,0,147,147,30,1,,,,,,,,,,,,,,,,,,,,,
,,,,,,,,,,,,,,,,,,,,,,,,,,,,,,,,,,,,,,,,,,,57cb267a648ff4000166658d,5fe19436509c7e41d9ff4071,2020-12-22_08h37.58.426,FlowerSimilarity_Experiment,2020.1.2,Win32,60,5fe17d4a51f3a9c1a60f9869,,,,,,,,,,,,,,,,,,,4,FF,,7,1.733,,,,,,,,,,,,,,,,,,,,,,,,,,,,,,,,,,43,80,1,0,0,response1disk,9,149,11,7,1,0,0,rectangle,11,7,1,0,0,,1,0,"[183,71,266,47,300,1,258,230,220,43,241,19,177,157,157,211,47,295,263,268]",11,7,1,0,0,,0,148,148,90,1,,,,,,,,,,,,,,,,,,,,,
,,,,,,,,,,,,,,,,,,,,,,,,,,,,,,,,,,,,,,,,,,,57cb267a648ff4000166658d,5fe19436509c7e41d9ff4071,2020-12-22_08h37.58.426,FlowerSimilarity_Experiment,2020.1.2,Win32,60,5fe17d4a51f3a9c1a60f9869,,,,,,,,,,,,,,,,,,,9,PF,,7,4.784,,,,,,,,,,,,,,,,,,,,,,,,,,,,,,,,,,32,69,1,0,0,response1disk,8,150,6,-2,1,0,0,rectangle,6,-2,1,0,0,,1,4,"[183,71,266,47,300,1,258,230,220,43,241,19,177,157,157,211,47,295,263,268]",6,-2,1,0,0,,0,149,149,67,1,,,,,,,,,,,,,,,,,,,,,
,,,,,,,,,,,,,,,,,,,,,,,,,,,,,,,,,,,,,,,,,,,57cb267a648ff4000166658d,5fe19436509c7e41d9ff4071,2020-12-22_08h37.58.426,FlowerSimilarity_Experiment,2020.1.2,Win32,60,5fe17d4a51f3a9c1a60f9869,,,,,,,,,,,,,,,,,,,6,PF,,5,2.5,,,,,,,,,,,,,,,,,,,,,,,,,,,,,,,,,,59,-40,1,0,0,response3disk,9,151,0,-2,1,0,0,rectangle,0,-2,1,0,0,,1,4,"[183,71,266,47,300,1,258,230,220,43,241,19,177,157,157,211,47,295,263,268]",0,-2,1,0,0,,0,150,150,45,1,,,,,,,,,,,,,,,,,,,,,
,,,,,,,,,,,,,,,,,,,,,,,,,,,,,,,,,,,,,,,,,,,57cb267a648ff4000166658d,5fe19436509c7e41d9ff4071,2020-12-22_08h37.58.426,FlowerSimilarity_Experiment,2020.1.2,Win32,60,5fe17d4a51f3a9c1a60f9869,,,,,,,,,,,,,,,,,,,3,PF,,5,1.783,,,,,,,,,,,,,,,,,,,,,,,,,,,,,,,,,,73,-47,1,0,0,response3disk,8,152,21,-1,1,0,0,rectangle,21,-1,1,0,0,,1,6,"[183,71,266,47,300,1,258,230,220,43,241,19,177,157,157,211,47,295,263,268]",21,-1,1,0,0,,0,151,151,3,1,,,,,,,,,,,,,,,,,,,,,
,,,,,,,,,,,,,,,,,,,,,,,,,,,,,,,,,,,,,,,,,,,57cb267a648ff4000166658d,5fe19436509c7e41d9ff4071,2020-12-22_08h37.58.426,FlowerSimilarity_Experiment,2020.1.2,Win32,60,5fe17d4a51f3a9c1a60f9869,,,,,,,,,,,,,,,,,,,9,PF,,7,1.666,,,,,,,,,,,,,,,,,,,,,,,,,,,,,,,,,,39,75,1,0,0,response1disk,2,153,14,-2,1,0,0,rectangle,14,-2,1,0,0,,1,1,"[183,71,266,47,300,1,258,230,220,43,241,19,177,157,157,211,47,295,263,268]",14,-2,1,0,0,,0,152,152,157,1,,,,,,,,,,,,,,,,,,,,,
,,,,,,,,,,,,,,,,,,,,,,,,,,,,,,,,,,,,,,,,,,,57cb267a648ff4000166658d,5fe19436509c7e41d9ff4071,2020-12-22_08h37.58.426,FlowerSimilarity_Experiment,2020.1.2,Win32,60,5fe17d4a51f3a9c1a60f9869,,,,,,,,,,,,,,,,,,,5,FF,,7,1.75,,,,,,,,,,,,,,,,,,,,,,,,,,,,,,,,,,45,79,1,0,0,response1disk,9,154,9,-4,1,0,0,rectangle,9,-4,1,0,0,,1,7,"[183,71,266,47,300,1,258,230,220,43,241,19,177,157,157,211,47,295,263,268]",9,-4,1,0,0,,0,153,153,61,1,,,,,,,,,,,,,,,,,,,,,
,,,,,,,,,,,,,,,,,,,,,,,,,,,,,,,,,,,,,,,,,,,57cb267a648ff4000166658d,5fe19436509c7e41d9ff4071,2020-12-22_08h37.58.426,FlowerSimilarity_Experiment,2020.1.2,Win32,60,5fe17d4a51f3a9c1a60f9869,,,,,,,,,,,,,,,,,,,5,FF,,6,2.134,,,,,,,,,,,,,,,,,,,,,,,,,,,,,,,,,,97,37,1,0,0,response1disk,7,155,10,-1,1,0,0,rectangle,10,-1,1,0,0,,1,2,"[183,71,266,47,300,1,258,230,220,43,241,19,177,157,157,211,47,295,263,268]",10,-1,1,0,0,,0,154,154,7,1,,,,,,,,,,,,,,,,,,,,,
,,,,,,,,,,,,,,,,,,,,,,,,,,,,,,,,,,,,,,,,,,,57cb267a648ff4000166658d,5fe19436509c7e41d9ff4071,2020-12-22_08h37.58.426,FlowerSimilarity_Experiment,2020.1.2,Win32,60,5fe17d4a51f3a9c1a60f9869,,,,,,,,,,,,,,,,,,,1,PF,,7,1.817,,,,,,,,,,,,,,,,,,,,,,,,,,,,,,,,,,41,69,1,0,0,response1disk,4,156,6,3,1,0,0,rectangle,6,3,1,0,0,,1,7,"[183,71,266,47,300,1,258,230,220,43,241,19,177,157,157,211,47,295,263,268]",6,3,1,0,0,,0,155,155,139,1,,,,,,,,,,,,,,,,,,,,,
,,,,,,,,,,,,,,,,,,,,,,,,,,,,,,,,,,,,,,,,,,,57cb267a648ff4000166658d,5fe19436509c7e41d9ff4071,2020-12-22_08h37.58.426,FlowerSimilarity_Experiment,2020.1.2,Win32,60,5fe17d4a51f3a9c1a60f9869,,,,,,,,,,,,,,,,,,,8,FF,,7,2.534,,,,,,,,,,,,,,,,,,,,,,,,,,,,,,,,,,35,62,1,0,0,response1disk,9,157,1,3,1,0,0,rectangle,-48,-95,1,0,0,response5disk_3,3,3,"[183,71,266,47,300,1,258,230,220,43,241,19,177,157,157,211,47,295,263,268]",5,-5,1,0,0,rectangle,0,156,156,105,1,,,,,,,,,,,,,,,,,,,,,
,,,,,,,,,,,,,,,,,,,,,,,,,,,,,,,,,,,,,,,,,,,57cb267a648ff4000166658d,5fe19436509c7e41d9ff4071,2020-12-22_08h37.58.426,FlowerSimilarity_Experiment,2020.1.2,Win32,60,5fe17d4a51f3a9c1a60f9869,,,,,,,,,,,,,,,,,,,3,PF,,3,2.884,,,,,,,,,,,,,,,,,,,,,,,,,,,,,,,,,,-55,-69,1,0,0,response5disk,7,158,-5,-6,1,0,0,rectangle,-5,-6,1,0,0,,3,3,"[183,71,266,47,300,1,258,230,220,43,241,19,177,157,157,211,47,295,263,268]",-5,-6,1,0,0,,0,157,157,41,1,,,,,,,,,,,,,,,,,,,,,
,,,,,,,,,,,,,,,,,,,,,,,,,,,,,,,,,,,,,,,,,,,57cb267a648ff4000166658d,5fe19436509c7e41d9ff4071,2020-12-22_08h37.58.426,FlowerSimilarity_Experiment,2020.1.2,Win32,60,5fe17d4a51f3a9c1a60f9869,,,,,,,,,,,,,,,,,,,4,PF,,5,4.899,,,,,,,,,,,,,,,,,,,,,,,,,,,,,,,,,,74,-29,1,0,0,response3disk,2,159,7,-3,1,0,0,rectangle,7,-3,1,0,0,,3,4,"[183,71,266,47,300,1,258,230,220,43,241,19,177,157,157,211,47,295,263,268]",7,-3,1,0,0,,0,158,158,108,1,,,,,,,,,,,,,,,,,,,,,
,,,,,,,,,,,,,,,,,,,,,,,,,,,,,,,,,,,,,,,,,,,57cb267a648ff4000166658d,5fe19436509c7e41d9ff4071,2020-12-22_08h37.58.426,FlowerSimilarity_Experiment,2020.1.2,Win32,60,5fe17d4a51f3a9c1a60f9869,,,,,,,,,,,,,,,,,,,8,FF,,5,2.083,,,,,,,,,,,,,,,,,,,,,,,,,,,,,,,,,,65,-33,1,0,0,response3disk,6,160,12,-5,1,0,0,rectangle,12,-5,1,0,0,,3,4,"[183,71,266,47,300,1,258,230,220,43,241,19,177,157,157,211,47,295,263,268]",12,-5,1,0,0,,0,159,159,37,1,,,,,,,,,,,,,,,,,,,,,
,,,,,,,,,,,,,,,,,,,,,,,,,,,,,,,,,,,,,,,,,,,57cb267a648ff4000166658d,5fe19436509c7e41d9ff4071,2020-12-22_08h37.58.426,FlowerSimilarity_Experiment,2020.1.2,Win32,60,5fe17d4a51f3a9c1a60f9869,,,,,,,,,,,,,,,,,,,9,FF,,7,4.218,,,,,,,,,,,,,,,,,,,,,,,,,,,,,,,,,,39,63,1,0,0,response1disk,5,161,9,8,1,0,0,rectangle,9,8,1,0,0,,3,1,"[183,71,266,47,300,1,258,230,220,43,241,19,177,157,157,211,47,295,263,268]",9,8,1,0,0,,0,160,160,128,1,,,,,,,,,,,,,,,,,,,,,
,,,,,,,,,,,,,,,,,,,,,,,,,,,,,,,,,,,,,,,,,,,57cb267a648ff4000166658d,5fe19436509c7e41d9ff4071,2020-12-22_08h37.58.426,FlowerSimilarity_Experiment,2020.1.2,Win32,60,5fe17d4a51f3a9c1a60f9869,,,,,,,,,,,,,,,,,,,4,FF,,0,1.4,,,,,,,,,,,,,,,,,,,,,,,,,,,,,,,,,,-36,57,1,0,0,response7disk,4,162,7,0,1,0,0,rectangle,7,0,1,0,0,,3,2,"[183,71,266,47,300,1,258,230,220,43,241,19,177,157,157,211,47,295,263,268]",7,0,1,0,0,,0,161,161,84,1,,,,,,,,,,,,,,,,,,,,,
,,,,,,,,,,,,,,,,,,,,,,,,,,,,,,,,,,,,,,,,,,,57cb267a648ff4000166658d,5fe19436509c7e41d9ff4071,2020-12-22_08h37.58.426,FlowerSimilarity_Experiment,2020.1.2,Win32,60,5fe17d4a51f3a9c1a60f9869,,,,,,,,,,,,,,,,,,,,,,,,,,,,,,,,,,,,,,,,,,,,,,,,,,,,,,,,,,,,,,,,,,,,,,,,,,,,,,,,,,,,,,,,,,,0,0,0,0,1,,,,,,,,,,,,,,,,
,,,,,,,,,,,,,,,,,,,,,,,,,,,,,,,,,,,,,,,,,,,57cb267a648ff4000166658d,5fe19436509c7e41d9ff4071,2020-12-22_08h37.58.426,FlowerSimilarity_Experiment,2020.1.2,Win32,60,5fe17d4a51f3a9c1a60f9869,,,,,,,,,,,,,,,,,,,2,PF,,7,2.099,,,,,,,,,,,,,,,,,,,,,,,,,,,,,,,,,,37,67,1,0,0,response1disk,6,163,15,5,1,0,0,rectangle,15,5,1,0,0,,3,4,"[183,71,266,47,300,1,258,230,220,43,241,19,177,157,157,211,47,295,263,268]",15,5,1,0,0,,0,0,0,113,1,,,,,,,,,,,,,,,,,,,,,
,,,,,,,,,,,,,,,,,,,,,,,,,,,,,,,,,,,,,,,,,,,57cb267a648ff4000166658d,5fe19436509c7e41d9ff4071,2020-12-22_08h37.58.426,FlowerSimilarity_Experiment,2020.1.2,Win32,60,5fe17d4a51f3a9c1a60f9869,,,,,,,,,,,,,,,,,,,5,FF,,0,1.434,,,,,,,,,,,,,,,,,,,,,,,,,,,,,,,,,,-27,50,1,0,0,response7disk,5,164,7,2,1,0,0,rectangle,7,2,1,0,0,,3,5,"[183,71,266,47,300,1,258,230,220,43,241,19,177,157,157,211,47,295,263,268]",7,2,1,0,0,,0,1,1,19,1,,,,,,,,,,,,,,,,,,,,,
,,,,,,,,,,,,,,,,,,,,,,,,,,,,,,,,,,,,,,,,,,,57cb267a648ff4000166658d,5fe19436509c7e41d9ff4071,2020-12-22_08h37.58.426,FlowerSimilarity_Experiment,2020.1.2,Win32,60,5fe17d4a51f3a9c1a60f9869,,,,,,,,,,,,,,,,,,,6,FF,,7,1.515,,,,,,,,,,,,,,,,,,,,,,,,,,,,,,,,,,36,81,1,0,0,response1disk,2,165,7,4,1,0,0,rectangle,7,4,1,0,0,,3,5,"[183,71,266,47,300,1,258,230,220,43,241,19,177,157,157,211,47,295,263,268]",7,4,1,0,0,,0,2,2,112,1,,,,,,,,,,,,,,,,,,,,,
,,,,,,,,,,,,,,,,,,,,,,,,,,,,,,,,,,,,,,,,,,,57cb267a648ff4000166658d,5fe19436509c7e41d9ff4071,2020-12-22_08h37.58.426,FlowerSimilarity_Experiment,2020.1.2,Win32,60,5fe17d4a51f3a9c1a60f9869,,,,,,,,,,,,,,,,,,,8,PF,,7,2.483,,,,,,,,,,,,,,,,,,,,,,,,,,,,,,,,,,25,67,1,0,0,response1disk,2,166,-5,-1,1,0,0,rectangle,-5,-1,1,0,0,,3,3,"[183,71,266,47,300,1,258,230,220,43,241,19,177,157,157,211,47,295,263,268]",-5,-1,1,0,0,,0,3,3,83,1,,,,,,,,,,,,,,,,,,,,,
,,,,,,,,,,,,,,,,,,,,,,,,,,,,,,,,,,,,,,,,,,,57cb267a648ff4000166658d,5fe19436509c7e41d9ff4071,2020-12-22_08h37.58.426,FlowerSimilarity_Experiment,2020.1.2,Win32,60,5fe17d4a51f3a9c1a60f9869,,,,,,,,,,,,,,,,,,,3,FF,,0,1.433,,,,,,,,,,,,,,,,,,,,,,,,,,,,,,,,,,-38,75,1,0,0,response7disk,7,167,6,5,1,0,0,rectangle,6,5,1,0,0,,3,4,"[183,71,266,47,300,1,258,230,220,43,241,19,177,157,157,211,47,295,263,268]",6,5,1,0,0,,0,4,4,118,1,,,,,,,,,,,,,,,,,,,,,
,,,,,,,,,,,,,,,,,,,,,,,,,,,,,,,,,,,,,,,,,,,57cb267a648ff4000166658d,5fe19436509c7e41d9ff4071,2020-12-22_08h37.58.426,FlowerSimilarity_Experiment,2020.1.2,Win32,60,5fe17d4a51f3a9c1a60f9869,,,,,,,,,,,,,,,,,,,7,PF,,4,3.633,,,,,,,,,,,,,,,,,,,,,,,,,,,,,,,,,,44,-69,1,0,0,response3disk,8,168,7,1,1,0,0,rectangle,7,1,1,0,0,,3,1,"[183,71,266,47,300,1,258,230,220,43,241,19,177,157,157,211,47,295,263,268]",7,1,1,0,0,,0,5,5,140,1,,,,,,,,,,,,,,,,,,,,,
,,,,,,,,,,,,,,,,,,,,,,,,,,,,,,,,,,,,,,,,,,,57cb267a648ff4000166658d,5fe19436509c7e41d9ff4071,2020-12-22_08h37.58.426,FlowerSimilarity_Experiment,2020.1.2,Win32,60,5fe17d4a51f3a9c1a60f9869,,,,,,,,,,,,,,,,,,,2,FF,,7,2.4,,,,,,,,,,,,,,,,,,,,,,,,,,,,,,,,,,41,82,1,0,0,response1disk,8,169,-2,-2,1,0,0,rectangle,-2,-2,1,0,0,,3,5,"[183,71,266,47,300,1,258,230,220,43,241,19,177,157,157,211,47,295,263,268]",-2,-2,1,0,0,,0,6,6,62,1,,,,,,,,,,,,,,,,,,,,,
,,,,,,,,,,,,,,,,,,,,,,,,,,,,,,,,,,,,,,,,,,,57cb267a648ff4000166658d,5fe19436509c7e41d9ff4071,2020-12-22_08h37.58.426,FlowerSimilarity_Experiment,2020.1.2,Win32,60,5fe17d4a51f3a9c1a60f9869,,,,,,,,,,,,,,,,,,,2,PF,,7,1.633,,,,,,,,,,,,,,,,,,,,,,,,,,,,,,,,,,45,72,1,0,0,response1disk,9,170,12,3,1,0,0,rectangle,12,3,1,0,0,,3,3,"[183,71,266,47,300,1,258,230,220,43,241,19,177,157,157,211,47,295,263,268]",12,3,1,0,0,,0,7,7,39,1,,,,,,,,,,,,,,,,,,,,,
,,,,,,,,,,,,,,,,,,,,,,,,,,,,,,,,,,,,,,,,,,,57cb267a648ff4000166658d,5fe19436509c7e41d9ff4071,2020-12-22_08h37.58.426,FlowerSimilarity_Experiment,2020.1.2,Win32,60,5fe17d4a51f3a9c1a60f9869,,,,,,,,,,,,,,,,,,,5,PF,,6,2.501,,,,,,,,,,,,,,,,,,,,,,,,,,,,,,,,,,73,39,1,0,0,response1disk,2,171,8,12,1,0,0,rectangle,8,12,1,0,0,,3,3,"[183,71,266,47,300,1,258,230,220,43,241,19,177,157,157,211,47,295,263,268]",8,12,1,0,0,,0,8,8,129,1,,,,,,,,,,,,,,,,,,,,,
,,,,,,,,,,,,,,,,,,,,,,,,,,,,,,,,,,,,,,,,,,,57cb267a648ff4000166658d,5fe19436509c7e41d9ff4071,2020-12-22_08h37.58.426,FlowerSimilarity_Experiment,2020.1.2,Win32,60,5fe17d4a51f3a9c1a60f9869,,,,,,,,,,,,,,,,,,,3,FF,,6,1.683,,,,,,,,,,,,,,,,,,,,,,,,,,,,,,,,,,69,37,1,0,0,response1disk,5,172,8,-3,1,0,0,rectangle,8,-3,1,0,0,,3,5,"[183,71,266,47,300,1,258,230,220,43,241,19,177,157,157,211,47,295,263,268]",8,-3,1,0,0,,0,9,9,101,1,,,,,,,,,,,,,,,,,,,,,
,,,,,,,,,,,,,,,,,,,,,,,,,,,,,,,,,,,,,,,,,,,57cb267a648ff4000166658d,5fe19436509c7e41d9ff4071,2020-12-22_08h37.58.426,FlowerSimilarity_Experiment,2020.1.2,Win32,60,5fe17d4a51f3a9c1a60f9869,,,,,,,,,,,,,,,,,,,6,PF,,7,1.8,,,,,,,,,,,,,,,,,,,,,,,,,,,,,,,,,,29,51,1,0,0,response1disk,3,173,4,1,1,0,0,rectangle,4,1,1,0,0,,3,5,"[183,71,266,47,300,1,258,230,220,43,241,19,177,157,157,211,47,295,263,268]",4,1,1,0,0,,0,10,10,26,1,,,,,,,,,,,,,,,,,,,,,
,,,,,,,,,,,,,,,,,,,,,,,,,,,,,,,,,,,,,,,,,,,57cb267a648ff4000166658d,5fe19436509c7e41d9ff4071,2020-12-22_08h37.58.426,FlowerSimilarity_Experiment,2020.1.2,Win32,60,5fe17d4a51f3a9c1a60f9869,,,,,,,,,,,,,,,,,,,1,FF,,7,3.817,,,,,,,,,,,,,,,,,,,,,,,,,,,,,,,,,,30,57,1,0,0,response1disk,8,174,3,-2,1,0,0,rectangle,3,-2,1,0,0,,3,0,"[183,71,266,47,300,1,258,230,220,43,241,19,177,157,157,211,47,295,263,268]",3,-2,1,0,0,,0,11,11,27,1,,,,,,,,,,,,,,,,,,,,,
,,,,,,,,,,,,,,,,,,,,,,,,,,,,,,,,,,,,,,,,,,,57cb267a648ff4000166658d,5fe19436509c7e41d9ff4071,2020-12-22_08h37.58.426,FlowerSimilarity_Experiment,2020.1.2,Win32,60,5fe17d4a51f3a9c1a60f9869,,,,,,,,,,,,,,,,,,,3,FF,,7,1.484,,,,,,,,,,,,,,,,,,,,,,,,,,,,,,,,,,43,77,1,0,0,response1disk,1,175,7,4,1,0,0,rectangle,7,4,1,0,0,,3,2,"[183,71,266,47,300,1,258,230,220,43,241,19,177,157,157,211,47,295,263,268]",7,4,1,0,0,,0,12,12,125,1,,,,,,,,,,,,,,,,,,,,,
,,,,,,,,,,,,,,,,,,,,,,,,,,,,,,,,,,,,,,,,,,,57cb267a648ff4000166658d,5fe19436509c7e41d9ff4071,2020-12-22_08h37.58.426,FlowerSimilarity_Experiment,2020.1.2,Win32,60,5fe17d4a51f3a9c1a60f9869,,,,,,,,,,,,,,,,,,,6,FF,,0,1.5,,,,,,,,,,,,,,,,,,,,,,,,,,,,,,,,,,-43,75,1,0,0,response7disk,6,176,-2,5,1,0,0,rectangle,-2,5,1,0,0,,3,0,"[183,71,266,47,300,1,258,230,220,43,241,19,177,157,157,211,47,295,263,268]",-2,5,1,0,0,,0,13,13,91,1,,,,,,,,,,,,,,,,,,,,,
,,,,,,,,,,,,,,,,,,,,,,,,,,,,,,,,,,,,,,,,,,,57cb267a648ff4000166658d,5fe19436509c7e41d9ff4071,2020-12-22_08h37.58.426,FlowerSimilarity_Experiment,2020.1.2,Win32,60,5fe17d4a51f3a9c1a60f9869,,,,,,,,,,,,,,,,,,,5,FF,,7,1.517,,,,,,,,,,,,,,,,,,,,,,,,,,,,,,,,,,34,73,1,0,0,response1disk,1,177,13,8,1,0,0,rectangle,-37,-93,1,0,0,response5disk_3,3,3,"[183,71,266,47,300,1,258,230,220,43,241,19,177,157,157,211,47,295,263,268]",-3,0,1,0,0,rectangle,0,14,14,131,1,,,,,,,,,,,,,,,,,,,,,
,,,,,,,,,,,,,,,,,,,,,,,,,,,,,,,,,,,,,,,,,,,57cb267a648ff4000166658d,5fe19436509c7e41d9ff4071,2020-12-22_08h37.58.426,FlowerSimilarity_Experiment,2020.1.2,Win32,60,5fe17d4a51f3a9c1a60f9869,,,,,,,,,,,,,,,,,,,7,FF,,4,5.367,,,,,,,,,,,,,,,,,,,,,,,,,,,,,,,,,,43,-65,1,0,0,response3disk,4,178,6,-4,1,0,0,rectangle,6,-4,1,0,0,,3,1,"[183,71,266,47,300,1,258,230,220,43,241,19,177,157,157,211,47,295,263,268]",6,-4,1,0,0,,0,15,15,158,1,,,,,,,,,,,,,,,,,,,,,
,,,,,,,,,,,,,,,,,,,,,,,,,,,,,,,,,,,,,,,,,,,57cb267a648ff4000166658d,5fe19436509c7e41d9ff4071,2020-12-22_08h37.58.426,FlowerSimilarity_Experiment,2020.1.2,Win32,60,5fe17d4a51f3a9c1a60f9869,,,,,,,,,,,,,,,,,,,4,FF,,7,1.534,,,,,,,,,,,,,,,,,,,,,,,,,,,,,,,,,,37,69,1,0,0,response1disk,5,179,-3,-3,1,0,0,rectangle,-3,-3,1,0,0,,3,6,"[183,71,266,47,300,1,258,230,220,43,241,19,177,157,157,211,47,295,263,268]",-3,-3,1,0,0,,0,16,16,116,1,,,,,,,,,,,,,,,,,,,,,
,,,,,,,,,,,,,,,,,,,,,,,,,,,,,,,,,,,,,,,,,,,57cb267a648ff4000166658d,5fe19436509c7e41d9ff4071,2020-12-22_08h37.58.426,FlowerSimilarity_Experiment,2020.1.2,Win32,60,5fe17d4a51f3a9c1a60f9869,,,,,,,,,,,,,,,,,,,4,FF,,7,1.523,,,,,,,,,,,,,,,,,,,,,,,,,,,,,,,,,,37,73,1,0,0,response1disk,8,180,1,-3,1,0,0,rectangle,1,-3,1,0,0,,3,6,"[183,71,266,47,300,1,258,230,220,43,241,19,177,157,157,211,47,295,263,268]",1,-3,1,0,0,,0,17,17,35,1,,,,,,,,,,,,,,,,,,,,,
,,,,,,,,,,,,,,,,,,,,,,,,,,,,,,,,,,,,,,,,,,,57cb267a648ff4000166658d,5fe19436509c7e41d9ff4071,2020-12-22_08h37.58.426,FlowerSimilarity_Experiment,2020.1.2,Win32,60,5fe17d4a51f3a9c1a60f9869,,,,,,,,,,,,,,,,,,,6,FF,,7,4.833,,,,,,,,,,,,,,,,,,,,,,,,,,,,,,,,,,37,88,1,0,0,response1disk,4,181,-1,1,1,0,0,rectangle,-1,1,1,0,0,,3,1,"[183,71,266,47,300,1,258,230,220,43,241,19,177,157,157,211,47,295,263,268]",-1,1,1,0,0,,0,18,18,56,1,,,,,,,,,,,,,,,,,,,,,
,,,,,,,,,,,,,,,,,,,,,,,,,,,,,,,,,,,,,,,,,,,57cb267a648ff4000166658d,5fe19436509c7e41d9ff4071,2020-12-22_08h37.58.426,FlowerSimilarity_Experiment,2020.1.2,Win32,60,5fe17d4a51f3a9c1a60f9869,,,,,,,,,,,,,,,,,,,3,FF,,7,2.767,,,,,,,,,,,,,,,,,,,,,,,,,,,,,,,,,,35,77,1,0,0,response1disk,8,182,13,3,1,0,0,rectangle,13,3,1,0,0,,3,2,"[183,71,266,47,300,1,258,230,220,43,241,19,177,157,157,211,47,295,263,268]",13,3,1,0,0,,0,19,19,44,1,,,,,,,,,,,,,,,,,,,,,
,,,,,,,,,,,,,,,,,,,,,,,,,,,,,,,,,,,,,,,,,,,57cb267a648ff4000166658d,5fe19436509c7e41d9ff4071,2020-12-22_08h37.58.426,FlowerSimilarity_Experiment,2020.1.2,Win32,60,5fe17d4a51f3a9c1a60f9869,,,,,,,,,,,,,,,,,,,4,FF,,7,1.951,,,,,,,,,,,,,,,,,,,,,,,,,,,,,,,,,,37,58,1,0,0,response1disk,3,183,11,0,1,0,0,rectangle,-37,59,1,0,0,response7disk_3,0,0,"[183,71,266,47,300,1,258,230,220,43,241,19,177,157,157,211,47,295,263,268]",11,0,1,0,0,rectangle,0,20,20,77,1,,,,,,,,,,,,,,,,,,,,,
,,,,,,,,,,,,,,,,,,,,,,,,,,,,,,,,,,,,,,,,,,,57cb267a648ff4000166658d,5fe19436509c7e41d9ff4071,2020-12-22_08h37.58.426,FlowerSimilarity_Experiment,2020.1.2,Win32,60,5fe17d4a51f3a9c1a60f9869,,,,,,,,,,,,,,,,,,,6,PF,,2,3.617,,,,,,,,,,,,,,,,,,,,,,,,,,,,,,,,,,-69,-26,1,0,0,response5disk,6,184,1,-5,1,0,0,rectangle,1,-5,1,0,0,,0,4,"[183,71,266,47,300,1,258,230,220,43,241,19,177,157,157,211,47,295,263,268]",1,-5,1,0,0,,0,21,21,0,1,,,,,,,,,,,,,,,,,,,,,
,,,,,,,,,,,,,,,,,,,,,,,,,,,,,,,,,,,,,,,,,,,57cb267a648ff4000166658d,5fe19436509c7e41d9ff4071,2020-12-22_08h37.58.426,FlowerSimilarity_Experiment,2020.1.2,Win32,60,5fe17d4a51f3a9c1a60f9869,,,,,,,,,,,,,,,,,,,5,PF,,7,2.867,,,,,,,,,,,,,,,,,,,,,,,,,,,,,,,,,,40,71,1,0,0,response1disk,6,185,5,-2,1,0,0,rectangle,5,-2,1,0,0,,0,3,"[183,71,266,47,300,1,258,230,220,43,241,19,177,157,157,211,47,295,263,268]",5,-2,1,0,0,,0,22,22,103,1,,,,,,,,,,,,,,,,,,,,,
,,,,,,,,,,,,,,,,,,,,,,,,,,,,,,,,,,,,,,,,,,,57cb267a648ff4000166658d,5fe19436509c7e41d9ff4071,2020-12-22_08h37.58.426,FlowerSimilarity_Experiment,2020.1.2,Win32,60,5fe17d4a51f3a9c1a60f9869,,,,,,,,,,,,,,,,,,,8,PF,,3,3.267,,,,,,,,,,,,,,,,,,,,,,,,,,,,,,,,,,-44,-77,1,0,0,response5disk,5,186,7,1,1,0,0,rectangle,7,1,1,0,0,,0,6,"[183,71,266,47,300,1,258,230,220,43,241,19,177,157,157,211,47,295,263,268]",7,1,1,0,0,,0,23,23,98,1,,,,,,,,,,,,,,,,,,,,,
,,,,,,,,,,,,,,,,,,,,,,,,,,,,,,,,,,,,,,,,,,,57cb267a648ff4000166658d,5fe19436509c7e41d9ff4071,2020-12-22_08h37.58.426,FlowerSimilarity_Experiment,2020.1.2,Win32,60,5fe17d4a51f3a9c1a60f9869,,,,,,,,,,,,,,,,,,,3,PF,,7,1.532,,,,,,,,,,,,,,,,,,,,,,,,,,,,,,,,,,35,76,1,0,0,response1disk,9,187,-3,-3,1,0,0,rectangle,-3,-3,1,0,0,,0,3,"[183,71,266,47,300,1,258,230,220,43,241,19,177,157,157,211,47,295,263,268]",-3,-3,1,0,0,,0,24,24,79,1,,,,,,,,,,,,,,,,,,,,,
,,,,,,,,,,,,,,,,,,,,,,,,,,,,,,,,,,,,,,,,,,,57cb267a648ff4000166658d,5fe19436509c7e41d9ff4071,2020-12-22_08h37.58.426,FlowerSimilarity_Experiment,2020.1.2,Win32,60,5fe17d4a51f3a9c1a60f9869,,,,,,,,,,,,,,,,,,,1,PF,,3,2.134,,,,,,,,,,,,,,,,,,,,,,,,,,,,,,,,,,-39,-81,1,0,0,response5disk,6,188,-2,-3,1,0,0,rectangle,-2,-3,1,0,0,,0,1,"[183,71,266,47,300,1,258,230,220,43,241,19,177,157,157,211,47,295,263,268]",-2,-3,1,0,0,,0,25,25,144,1,,,,,,,,,,,,,,,,,,,,,
,,,,,,,,,,,,,,,,,,,,,,,,,,,,,,,,,,,,,,,,,,,57cb267a648ff4000166658d,5fe19436509c7e41d9ff4071,2020-12-22_08h37.58.426,FlowerSimilarity_Experiment,2020.1.2,Win32,60,5fe17d4a51f3a9c1a60f9869,,,,,,,,,,,,,,,,,,,4,FF,,4,2.333,,,,,,,,,,,,,,,,,,,,,,,,,,,,,,,,,,64,-71,1,0,0,response3disk,7,189,17,-3,1,0,0,rectangle,17,-3,1,0,0,,0,3,"[183,71,266,47,300,1,258,230,220,43,241,19,177,157,157,211,47,295,263,268]",17,-3,1,0,0,,0,26,26,87,1,,,,,,,,,,,,,,,,,,,,,
,,,,,,,,,,,,,,,,,,,,,,,,,,,,,,,,,,,,,,,,,,,57cb267a648ff4000166658d,5fe19436509c7e41d9ff4071,2020-12-22_08h37.58.426,FlowerSimilarity_Experiment,2020.1.2,Win32,60,5fe17d4a51f3a9c1a60f9869,,,,,,,,,,,,,,,,,,,8,PF,,7,1.634,,,,,,,,,,,,,,,,,,,,,,,,,,,,,,,,,,45,72,1,0,0,response1disk,1,190,-1,3,1,0,0,rectangle,-1,3,1,0,0,,0,7,"[183,71,266,47,300,1,258,230,220,43,241,19,177,157,157,211,47,295,263,268]",-1,3,1,0,0,,0,27,27,57,1,,,,,,,,,,,,,,,,,,,,,
,,,,,,,,,,,,,,,,,,,,,,,,,,,,,,,,,,,,,,,,,,,57cb267a648ff4000166658d,5fe19436509c7e41d9ff4071,2020-12-22_08h37.58.426,FlowerSimilarity_Experiment,2020.1.2,Win32,60,5fe17d4a51f3a9c1a60f9869,,,,,,,,,,,,,,,,,,,7,PF,,7,3.766,,,,,,,,,,,,,,,,,,,,,,,,,,,,,,,,,,28,77,1,0,0,response1disk,2,191,15,-6,1,0,0,rectangle,15,-6,1,0,0,,0,7,"[183,71,266,47,300,1,258,230,220,43,241,19,177,157,157,211,47,295,263,268]",15,-6,1,0,0,,0,28,28,32,1,,,,,,,,,,,,,,,,,,,,,
,,,,,,,,,,,,,,,,,,,,,,,,,,,,,,,,,,,,,,,,,,,57cb267a648ff4000166658d,5fe19436509c7e41d9ff4071,2020-12-22_08h37.58.426,FlowerSimilarity_Experiment,2020.1.2,Win32,60,5fe17d4a51f3a9c1a60f9869,,,,,,,,,,,,,,,,,,,3,PF,,7,2.583,,,,,,,,,,,,,,,,,,,,,,,,,,,,,,,,,,44,69,1,0,0,response1disk,6,192,6,-3,1,0,0,rectangle,6,-3,1,0,0,,0,1,"[183,71,266,47,300,1,258,230,220,43,241,19,177,157,157,211,47,295,263,268]",6,-3,1,0,0,,0,29,29,47,1,,,,,,,,,,,,,,,,,,,,,
,,,,,,,,,,,,,,,,,,,,,,,,,,,,,,,,,,,,,,,,,,,57cb267a648ff4000166658d,5fe19436509c7e41d9ff4071,2020-12-22_08h37.58.426,FlowerSimilarity_Experiment,2020.1.2,Win32,60,5fe17d4a51f3a9c1a60f9869,,,,,,,,,,,,,,,,,,,8,FF,,4,2.25,,,,,,,,,,,,,,,,,,,,,,,,,,,,,,,,,,51,-72,1,0,0,response3disk,7,193,3,-2,1,0,0,rectangle,3,-2,1,0,0,,0,2,"[183,71,266,47,300,1,258,230,220,43,241,19,177,157,157,211,47,295,263,268]",3,-2,1,0,0,,0,30,30,86,1,,,,,,,,,,,,,,,,,,,,,
,,,,,,,,,,,,,,,,,,,,,,,,,,,,,,,,,,,,,,,,,,,57cb267a648ff4000166658d,5fe19436509c7e41d9ff4071,2020-12-22_08h37.58.426,FlowerSimilarity_Experiment,2020.1.2,Win32,60,5fe17d4a51f3a9c1a60f9869,,,,,,,,,,,,,,,,,,,5,FF,,7,1.549,,,,,,,,,,,,,,,,,,,,,,,,,,,,,,,,,,43,81,1,0,0,response1disk,2,194,12,1,1,0,0,rectangle,12,1,1,0,0,,0,6,"[183,71,266,47,300,1,258,230,220,43,241,19,177,157,157,211,47,295,263,268]",12,1,1,0,0,,0,31,31,55,1,,,,,,,,,,,,,,,,,,,,,
,,,,,,,,,,,,,,,,,,,,,,,,,,,,,,,,,,,,,,,,,,,57cb267a648ff4000166658d,5fe19436509c7e41d9ff4071,2020-12-22_08h37.58.426,FlowerSimilarity_Experiment,2020.1.2,Win32,60,5fe17d4a51f3a9c1a60f9869,,,,,,,,,,,,,,,,,,,5,FF,,3,2.467,,,,,,,,,,,,,,,,,,,,,,,,,,,,,,,,,,-51,-84,1,0,0,response5disk,8,195,-1,4,1,0,0,rectangle,-1,4,1,0,0,,0,4,"[183,71,266,47,300,1,258,230,220,43,241,19,177,157,157,211,47,295,263,268]",-1,4,1,0,0,,0,32,32,16,1,,,,,,,,,,,,,,,,,,,,,
,,,,,,,,,,,,,,,,,,,,,,,,,,,,,,,,,,,,,,,,,,,57cb267a648ff4000166658d,5fe19436509c7e41d9ff4071,2020-12-22_08h37.58.426,FlowerSimilarity_Experiment,2020.1.2,Win32,60,5fe17d4a51f3a9c1a60f9869,,,,,,,,,,,,,,,,,,,7,FF,,7,1.484,,,,,,,,,,,,,,,,,,,,,,,,,,,,,,,,,,49,79,1,0,0,response1disk,1,196,7,1,1,0,0,rectangle,7,1,1,0,0,,0,3,"[183,71,266,47,300,1,258,230,220,43,241,19,177,157,157,211,47,295,263,268]",7,1,1,0,0,,0,33,33,132,1,,,,,,,,,,,,,,,,,,,,,
,,,,,,,,,,,,,,,,,,,,,,,,,,,,,,,,,,,,,,,,,,,57cb267a648ff4000166658d,5fe19436509c7e41d9ff4071,2020-12-22_08h37.58.426,FlowerSimilarity_Experiment,2020.1.2,Win32,60,5fe17d4a51f3a9c1a60f9869,,,,,,,,,,,,,,,,,,,2,PF,,7,3.267,,,,,,,,,,,,,,,,,,,,,,,,,,,,,,,,,,37,59,1,0,0,response1disk,5,197,7,1,1,0,0,rectangle,7,1,1,0,0,,0,0,"[183,71,266,47,300,1,258,230,220,43,241,19,177,157,157,211,47,295,263,268]",7,1,1,0,0,,0,34,34,147,1,,,,,,,,,,,,,,,,,,,,,
,,,,,,,,,,,,,,,,,,,,,,,,,,,,,,,,,,,,,,,,,,,57cb267a648ff4000166658d,5fe19436509c7e41d9ff4071,2020-12-22_08h37.58.426,FlowerSimilarity_Experiment,2020.1.2,Win32,60,5fe17d4a51f3a9c1a60f9869,,,,,,,,,,,,,,,,,,,6,FF,,7,1.885,,,,,,,,,,,,,,,,,,,,,,,,,,,,,,,,,,37,63,1,0,0,response1disk,1,198,9,3,1,0,0,rectangle,9,3,1,0,0,,0,3,"[183,71,266,47,300,1,258,230,220,43,241,19,177,157,157,211,47,295,263,268]",9,3,1,0,0,,0,35,35,5,1,,,,,,,,,,,,,,,,,,,,,
,,,,,,,,,,,,,,,,,,,,,,,,,,,,,,,,,,,,,,,,,,,57cb267a648ff4000166658d,5fe19436509c7e41d9ff4071,2020-12-22_08h37.58.426,FlowerSimilarity_Experiment,2020.1.2,Win32,60,5fe17d4a51f3a9c1a60f9869,,,,,,,,,,,,,,,,,,,7,FF,,7,1.95,,,,,,,,,,,,,,,,,,,,,,,,,,,,,,,,,,37,79,1,0,0,response1disk,6,199,9,3,1,0,0,rectangle,9,3,1,0,0,,0,2,"[183,71,266,47,300,1,258,230,220,43,241,19,177,157,157,211,47,295,263,268]",9,3,1,0,0,,0,36,36,31,1,,,,,,,,,,,,,,,,,,,,,
,,,,,,,,,,,,,,,,,,,,,,,,,,,,,,,,,,,,,,,,,,,57cb267a648ff4000166658d,5fe19436509c7e41d9ff4071,2020-12-22_08h37.58.426,FlowerSimilarity_Experiment,2020.1.2,Win32,60,5fe17d4a51f3a9c1a60f9869,,,,,,,,,,,,,,,,,,,1,FF,,7,1.501,,,,,,,,,,,,,,,,,,,,,,,,,,,,,,,,,,39,71,1,0,0,response1disk,6,200,14,-2,1,0,0,rectangle,14,-2,1,0,0,,0,2,"[183,71,266,47,300,1,258,230,220,43,241,19,177,157,157,211,47,295,263,268]",14,-2,1,0,0,,0,37,37,58,1,,,,,,,,,,,,,,,,,,,,,
,,,,,,,,,,,,,,,,,,,,,,,,,,,,,,,,,,,,,,,,,,,57cb267a648ff4000166658d,5fe19436509c7e41d9ff4071,2020-12-22_08h37.58.426,FlowerSimilarity_Experiment,2020.1.2,Win32,60,5fe17d4a51f3a9c1a60f9869,,,,,,,,,,,,,,,,,,,5,PF,,5,3.117,,,,,,,,,,,,,,,,,,,,,,,,,,,,,,,,,,71,-48,1,0,0,response3disk,8,201,20,-5,1,0,0,rectangle,20,-5,1,0,0,,0,3,"[183,71,266,47,300,1,258,230,220,43,241,19,177,157,157,211,47,295,263,268]",20,-5,1,0,0,,0,38,38,149,1,,,,,,,,,,,,,,,,,,,,,
,,,,,,,,,,,,,,,,,,,,,,,,,,,,,,,,,,,,,,,,,,,57cb267a648ff4000166658d,5fe19436509c7e41d9ff4071,2020-12-22_08h37.58.426,FlowerSimilarity_Experiment,2020.1.2,Win32,60,5fe17d4a51f3a9c1a60f9869,,,,,,,,,,,,,,,,,,,8,FF,,7,1.401,,,,,,,,,,,,,,,,,,,,,,,,,,,,,,,,,,41,81,1,0,0,response1disk,4,202,18,-6,1,0,0,rectangle,18,-6,1,0,0,,0,2,"[183,71,266,47,300,1,258,230,220,43,241,19,177,157,157,211,47,295,263,268]",18,-6,1,0,0,,0,39,39,88,1,,,,,,,,,,,,,,,,,,,,,
,,,,,,,,,,,,,,,,,,,,,,,,,,,,,,,,,,,,,,,,,,,57cb267a648ff4000166658d,5fe19436509c7e41d9ff4071,2020-12-22_08h37.58.426,FlowerSimilarity_Experiment,2020.1.2,Win32,60,5fe17d4a51f3a9c1a60f9869,,,,,,,,,,,,,,,,,,,1,PF,,7,1.634,,,,,,,,,,,,,,,,,,,,,,,,,,,,,,,,,,39,79,1,0,0,response1disk,7,203,7,3,1,0,0,rectangle,7,3,1,0,0,,0,2,"[183,71,266,47,300,1,258,230,220,43,241,19,177,157,157,211,47,295,263,268]",7,3,1,0,0,,0,40,40,150,1,,,,,,,,,,,,,,,,,,,,,
,,,,,,,,,,,,,,,,,,,,,,,,,,,,,,,,,,,,,,,,,,,57cb267a648ff4000166658d,5fe19436509c7e41d9ff4071,2020-12-22_08h37.58.426,FlowerSimilarity_Experiment,2020.1.2,Win32,60,5fe17d4a51f3a9c1a60f9869,,,,,,,,,,,,,,,,,,,4,FF,,7,1.284,,,,,,,,,,,,,,,,,,,,,,,,,,,,,,,,,,31,72,1,0,0,response1disk,6,204,13,-2,1,0,0,rectangle,13,-2,1,0,0,,0,3,"[183,71,266,47,300,1,258,230,220,43,241,19,177,157,157,211,47,295,263,268]",13,-2,1,0,0,,0,41,41,122,1,,,,,,,,,,,,,,,,,,,,,
,,,,,,,,,,,,,,,,,,,,,,,,,,,,,,,,,,,,,,,,,,,57cb267a648ff4000166658d,5fe19436509c7e41d9ff4071,2020-12-22_08h37.58.426,FlowerSimilarity_Experiment,2020.1.2,Win32,60,5fe17d4a51f3a9c1a60f9869,,,,,,,,,,,,,,,,,,,6,FF,,7,1.401,,,,,,,,,,,,,,,,,,,,,,,,,,,,,,,,,,37,82,1,0,0,response1disk,7,205,23,-1,1,0,0,rectangle,23,-1,1,0,0,,0,0,"[183,71,266,47,300,1,258,230,220,43,241,19,177,157,157,211,47,295,263,268]",23,-1,1,0,0,,0,42,42,18,1,,,,,,,,,,,,,,,,,,,,,
,,,,,,,,,,,,,,,,,,,,,,,,,,,,,,,,,,,,,,,,,,,57cb267a648ff4000166658d,5fe19436509c7e41d9ff4071,2020-12-22_08h37.58.426,FlowerSimilarity_Experiment,2020.1.2,Win32,60,5fe17d4a51f3a9c1a60f9869,,,,,,,,,,,,,,,,,,,2,FF,,7,1.25,,,,,,,,,,,,,,,,,,,,,,,,,,,,,,,,,,36,75,1,0,0,response1disk,5,206,14,0,1,0,0,rectangle,14,0,1,0,0,,0,0,"[183,71,266,47,300,1,258,230,220,43,241,19,177,157,157,211,47,295,263,268]",14,0,1,0,0,,0,43,43,80,1,,,,,,,,,,,,,,,,,,,,,
,,,,,,,,,,,,,,,,,,,,,,,,,,,,,,,,,,,,,,,,,,,57cb267a648ff4000166658d,5fe19436509c7e41d9ff4071,2020-12-22_08h37.58.426,FlowerSimilarity_Experiment,2020.1.2,Win32,60,5fe17d4a51f3a9c1a60f9869,,,,,,,,,,,,,,,,,,,1,FF,,7,1.132,,,,,,,,,,,,,,,,,,,,,,,,,,,,,,,,,,39,75,1,0,0,response1disk,2,207,13,-3,1,0,0,rectangle,13,-3,1,0,0,,0,7,"[183,71,266,47,300,1,258,230,220,43,241,19,177,157,157,211,47,295,263,268]",13,-3,1,0,0,,0,44,44,2,1,,,,,,,,,,,,,,,,,,,,,
,,,,,,,,,,,,,,,,,,,,,,,,,,,,,,,,,,,,,,,,,,,57cb267a648ff4000166658d,5fe19436509c7e41d9ff4071,2020-12-22_08h37.58.426,FlowerSimilarity_Experiment,2020.1.2,Win32,60,5fe17d4a51f3a9c1a60f9869,,,,,,,,,,,,,,,,,,,1,FF,,7,1.183,,,,,,,,,,,,,,,,,,,,,,,,,,,,,,,,,,31,69,1,0,0,response1disk,7,208,16,5,1,0,0,rectangle,16,5,1,0,0,,0,4,"[183,71,266,47,300,1,258,230,220,43,241,19,177,157,157,211,47,295,263,268]",16,5,1,0,0,,0,45,45,137,1,,,,,,,,,,,,,,,,,,,,,
