key_resp.keys,key_resp.rt,key_resp_16.keys,key_resp_16.rt,key_resp_2.keys,key_resp_2.rt,X Scale,ratio_pxpermm,screen_size_x,screen_size_y,testsize,key_resp_3.keys,key_resp_3.rt,key_resp_4.keys,key_resp_4.rt,line_size,key_resp_5.keys,key_resp_5.rt,key_resp_6.keys,key_resp_6.rt,key_resp_8.keys,key_resp_8.rt,key_resp_7.keys,key_resp_7.rt,key_resp_12.keys,key_resp_12.rt,key_resp_11.keys,key_resp_11.rt,key_resp_18.keys,key_resp_18.rt,key_resp_21.keys,key_resp_21.rt,key_resp_13.keys,key_resp_13.rt,key_resp_19.keys,key_resp_19.rt,ballposx,viewer_distance,trials.thisRepN,trials.thisTrialN,trials.thisN,trials.thisIndex,trials.ran,participant,session,date,expName,psychopyVersion,OS,frameRate,study_id,viewerdistancecm,DVA_to_distance,radius_F,radius_P,r_F,R_P,key_resp_20.keys,key_resp_20.rt,key_resp_14.keys,key_resp_14.rt,key_resp_15.keys,key_resp_15.rt,key_resp_17.keys,key_resp_17.rt,key_resp_9.keys,key_resp_9.rt,key_resp_10.keys,key_resp_10.rt,Flower1,Ecc,Flower_2,similarity,response_time,mouse_5.x,mouse_5.y,mouse_5.leftButton,mouse_5.midButton,mouse_5.rightButton,mouse_5.clicked_name,mouse_10.x,mouse_10.y,mouse_10.leftButton,mouse_10.midButton,mouse_10.rightButton,mouse_10.clicked_name,mouse_7.x,mouse_7.y,mouse_7.leftButton,mouse_7.midButton,mouse_7.rightButton,mouse_7.clicked_name,catchprac,catchnumberprac,mouse_6.x,mouse_6.y,mouse_6.leftButton,mouse_6.midButton,mouse_6.rightButton,mouse_6.clicked_name,duringprac.thisRepN,duringprac.thisTrialN,duringprac.thisN,duringprac.thisIndex,duringprac.ran,key_resp_22.keys,key_resp_22.rt,mouse.x,mouse.y,mouse.leftButton,mouse.midButton,mouse.rightButton,mouse.clicked_name,Flower2,trialnumber,mouse_2.x,mouse_2.y,mouse_2.leftButton,mouse_2.midButton,mouse_2.rightButton,mouse_2.clicked_name,mouse_3.x,mouse_3.y,mouse_3.leftButton,mouse_3.midButton,mouse_3.rightButton,catchresponse,catchnumber,catchtrialorder,mouse_11.x,mouse_11.y,mouse_11.leftButton,mouse_11.midButton,mouse_11.rightButton,trials_2.thisRepN,trials_2.thisTrialN,trials_2.thisN,trials_2.thisIndex,trials_2.ran,mouse_3.clicked_name,mouse_11.clicked_name,trials_3.thisRepN,trials_3.thisTrialN,trials_3.thisN,trials_3.thisIndex,trials_3.ran,answer1,rt1,answer2,rt2,answer3,rt3,answer4,rt4,answer5,rt5,answer6,rt6,answer8,rt8,answer7,rt7
space,2.698,space,10.878,space,11.38,54.2,5.42,236.1623616,147.601476,1280,space,52.746,space,19.48,108.4,space,16.619,space,7.287,space,2.964,space,6.738,space,18.618,space,13.803,space,11.756,space,11.448,space,35.758,return,13.772,-311.04,632.5109954,0,0,0,0,1,589cc7bd8bf22a00015b7b30,5fe1920ce66d7fc125cbc35f,2020-12-22_00h31.46.743,FlowerSimilarity_Experiment,2020.1.2,Win32,60,5fe17d4a51f3a9c1a60f9869,,,,,,,,,,,,,,,,,,,,,,,,,,,,,,,,,,,,,,,,,,,,,,,,,,,,,,,,,,,,,,,,,,,,,,,,,,,,,,,,,,,,,,,,,,,,,,,,,,,,,,,,,,,,,,,
,,,,,,,,,,,,,,,,,,,,,,,,,,,,,,,,,,return,13.068,-234.24,573.4897517,1,0,1,0,1,589cc7bd8bf22a00015b7b30,5fe1920ce66d7fc125cbc35f,2020-12-22_00h31.46.743,FlowerSimilarity_Experiment,2020.1.2,Win32,60,5fe17d4a51f3a9c1a60f9869,,,,,,,,,,,,,,,,,,,,,,,,,,,,,,,,,,,,,,,,,,,,,,,,,,,,,,,,,,,,,,,,,,,,,,,,,,,,,,,,,,,,,,,,,,,,,,,,,,,,,,,,,,,,,,,
,,,,,,,,,,,,,,,,,,,,,,,,,,,,,,,,,,return,12.87,-238.08,576.4408139,2,0,2,0,1,589cc7bd8bf22a00015b7b30,5fe1920ce66d7fc125cbc35f,2020-12-22_00h31.46.743,FlowerSimilarity_Experiment,2020.1.2,Win32,60,5fe17d4a51f3a9c1a60f9869,,,,,,,,,,,,,,,,,,,,,,,,,,,,,,,,,,,,,,,,,,,,,,,,,,,,,,,,,,,,,,,,,,,,,,,,,,,,,,,,,,,,,,,,,,,,,,,,,,,,,,,,,,,,,,,
,,,,,,,,,,,,,,,,,,,,,,,,,,,,,,,,,,return,12.177,-205.44,551.3567853,3,0,3,0,1,589cc7bd8bf22a00015b7b30,5fe1920ce66d7fc125cbc35f,2020-12-22_00h31.46.743,FlowerSimilarity_Experiment,2020.1.2,Win32,60,5fe17d4a51f3a9c1a60f9869,,,,,,,,,,,,,,,,,,,,,,,,,,,,,,,,,,,,,,,,,,,,,,,,,,,,,,,,,,,,,,,,,,,,,,,,,,,,,,,,,,,,,,,,,,,,,,,,,,,,,,,,,,,,,,,
,,,,,,,,,,,,,,,,,,,,,,,,,,,,,,,,,,return,13.553,-216.96,560.2099718,4,0,4,0,1,589cc7bd8bf22a00015b7b30,5fe1920ce66d7fc125cbc35f,2020-12-22_00h31.46.743,FlowerSimilarity_Experiment,2020.1.2,Win32,60,5fe17d4a51f3a9c1a60f9869,,,,,,,,,,,,,,,,,,,,,,,,,,,,,,,,,,,,,,,,,,,,,,,,,,,,,,,,,,,,,,,,,,,,,,,,,,,,,,,,,,,,,,,,,,,,,,,,,,,,,,,,,,,,,,,
,,,,,,,,,,,,,,,,,,,,,,,,,,,,,,,,,,,,,,,,,,,589cc7bd8bf22a00015b7b30,5fe1920ce66d7fc125cbc35f,2020-12-22_00h31.46.743,FlowerSimilarity_Experiment,2020.1.2,Win32,60,5fe17d4a51f3a9c1a60f9869,58,10.12393404,82.30758373,548.7172248,54.87172248,246.9227512,space,7.607,space,31.513,space,77.008,space,20.51,space,24.225,space,5.566,6,PF,9,2,13.653,-86,-37,1,0,0,response5disk_5,-5,-2,1,0,0,rectangle_8,91,39,1,0,0,response1disk_7,6,6,13,-7,1,0,0,rectangle_4,0,0,0,6,1,,,,,,,,,,,,,,,,,,,,,,,,,,,,,,,,,,,,,,,,,,,,,,,,,,,,,,,,,
,,,,,,,,,,,,,,,,,,,,,,,,,,,,,,,,,,,,,,,,,,,589cc7bd8bf22a00015b7b30,5fe1920ce66d7fc125cbc35f,2020-12-22_00h31.46.743,FlowerSimilarity_Experiment,2020.1.2,Win32,60,5fe17d4a51f3a9c1a60f9869,,,,,,,,,,,,,,,,,,,1,PF,5,7,10.136,38,97,1,0,0,response1disk_5,-1,5,1,0,0,rectangle_8,-1,5,1,0,0,,,6,-1,5,1,0,0,,0,1,1,4,1,,,,,,,,,,,,,,,,,,,,,,,,,,,,,,,,,,,,,,,,,,,,,,,,,,,,,,,,,
,,,,,,,,,,,,,,,,,,,,,,,,,,,,,,,,,,,,,,,,,,,589cc7bd8bf22a00015b7b30,5fe1920ce66d7fc125cbc35f,2020-12-22_00h31.46.743,FlowerSimilarity_Experiment,2020.1.2,Win32,60,5fe17d4a51f3a9c1a60f9869,,,,,,,,,,,,,,,,,,,6,PF,7,6,8.819,77,33,1,0,0,response1disk_5,18,-4,1,0,0,rectangle_8,18,-4,1,0,0,,,6,18,-4,1,0,0,,0,2,2,1,1,,,,,,,,,,,,,,,,,,,,,,,,,,,,,,,,,,,,,,,,,,,,,,,,,,,,,,,,,
,,,,,,,,,,,,,,,,,,,,,,,,,,,,,,,,,,,,,,,,,,,589cc7bd8bf22a00015b7b30,5fe1920ce66d7fc125cbc35f,2020-12-22_00h31.46.743,FlowerSimilarity_Experiment,2020.1.2,Win32,60,5fe17d4a51f3a9c1a60f9869,,,,,,,,,,,,,,,,,,,3,FF,5,5,4.754,46,-27,1,0,0,response3disk_5,7,-13,1,0,0,rectangle_8,7,-13,1,0,0,,,6,7,-13,1,0,0,,0,3,3,3,1,,,,,,,,,,,,,,,,,,,,,,,,,,,,,,,,,,,,,,,,,,,,,,,,,,,,,,,,,
,,,,,,,,,,,,,,,,,,,,,,,,,,,,,,,,,,,,,,,,,,,589cc7bd8bf22a00015b7b30,5fe1920ce66d7fc125cbc35f,2020-12-22_00h31.46.743,FlowerSimilarity_Experiment,2020.1.2,Win32,60,5fe17d4a51f3a9c1a60f9869,,,,,,,,,,,,,,,,,,,4,FF,3,3,5.055,-52,-81,1,0,0,response5disk_5,6,9,1,0,0,rectangle_8,69,40,1,0,0,response1disk_7,6,6,4,-2,1,0,0,rectangle_4,0,4,4,5,1,,,,,,,,,,,,,,,,,,,,,,,,,,,,,,,,,,,,,,,,,,,,,,,,,,,,,,,,,
,,,,,,,,,,,,,,,,,,,,,,,,,,,,,,,,,,,,,,,,,,,589cc7bd8bf22a00015b7b30,5fe1920ce66d7fc125cbc35f,2020-12-22_00h31.46.743,FlowerSimilarity_Experiment,2020.1.2,Win32,60,5fe17d4a51f3a9c1a60f9869,,,,,,,,,,,,,,,,,,,1,PF,3,5,7.484,94,-37,1,0,0,response3disk_5,3,-4,1,0,0,rectangle_8,3,-4,1,0,0,,,6,3,-4,1,0,0,,0,5,5,2,1,,,,,,,,,,,,,,,,,,,,,,,,,,,,,,,,,,,,,,,,,,,,,,,,,,,,,,,,,
,,,,,,,,,,,,,,,,,,,,,,,,,,,,,,,,,,,,,,,,,,,589cc7bd8bf22a00015b7b30,5fe1920ce66d7fc125cbc35f,2020-12-22_00h31.46.743,FlowerSimilarity_Experiment,2020.1.2,Win32,60,5fe17d4a51f3a9c1a60f9869,,,,,,,,,,,,,,,,,,,5,FF,4,7,4.275,57,96,1,0,0,response1disk_5,-6,2,1,0,0,rectangle_8,-6,2,1,0,0,,,6,-6,2,1,0,0,,0,6,6,0,1,,,,,,,,,,,,,,,,,,,,,,,,,,,,,,,,,,,,,,,,,,,,,,,,,,,,,,,,,
,,,,,,,,,,,,,,,,,,,,,,,,,,,,,,,,,,,,,,,,,,,589cc7bd8bf22a00015b7b30,5fe1920ce66d7fc125cbc35f,2020-12-22_00h31.46.743,FlowerSimilarity_Experiment,2020.1.2,Win32,60,5fe17d4a51f3a9c1a60f9869,,,,,,,,,,,,,,,,,,,6,FF,,6,15.117,,,,,,,,,,,,,,,,,,,,,,,,,,,,,,,,space,5.968,107,53,1,0,0,response1disk,4,1,7,7,1,0,0,rectangle,7,7,1,0,0,,7,"[251,175,322,306,236,109,312,160,126,25,128,80,132,292,40,145,216,92,187,136]",7,7,1,0,0,0,0,0,56,1,,,,,,,,,,,,,,,,,,,,,,,
,,,,,,,,,,,,,,,,,,,,,,,,,,,,,,,,,,,,,,,,,,,589cc7bd8bf22a00015b7b30,5fe1920ce66d7fc125cbc35f,2020-12-22_00h31.46.743,FlowerSimilarity_Experiment,2020.1.2,Win32,60,5fe17d4a51f3a9c1a60f9869,,,,,,,,,,,,,,,,,,,2,PF,,3,5.896,,,,,,,,,,,,,,,,,,,,,,,,,,,,,,,,,,-24,-96,1,0,0,response5disk,5,2,-9,-2,1,0,0,rectangle,-9,-2,1,0,0,,4,"[251,175,322,306,236,109,312,160,126,25,128,80,132,292,40,145,216,92,187,136]",-9,-2,1,0,0,0,1,1,147,1,,,,,,,,,,,,,,,,,,,,,,,
,,,,,,,,,,,,,,,,,,,,,,,,,,,,,,,,,,,,,,,,,,,589cc7bd8bf22a00015b7b30,5fe1920ce66d7fc125cbc35f,2020-12-22_00h31.46.743,FlowerSimilarity_Experiment,2020.1.2,Win32,60,5fe17d4a51f3a9c1a60f9869,,,,,,,,,,,,,,,,,,,8,PF,,6,5.701,,,,,,,,,,,,,,,,,,,,,,,,,,,,,,,,,,100,63,1,0,0,response1disk,7,3,4,6,1,0,0,rectangle,4,6,1,0,0,,1,"[251,175,322,306,236,109,312,160,126,25,128,80,132,292,40,145,216,92,187,136]",4,6,1,0,0,0,2,2,23,1,,,,,,,,,,,,,,,,,,,,,,,
,,,,,,,,,,,,,,,,,,,,,,,,,,,,,,,,,,,,,,,,,,,589cc7bd8bf22a00015b7b30,5fe1920ce66d7fc125cbc35f,2020-12-22_00h31.46.743,FlowerSimilarity_Experiment,2020.1.2,Win32,60,5fe17d4a51f3a9c1a60f9869,,,,,,,,,,,,,,,,,,,4,PF,,7,2.748,,,,,,,,,,,,,,,,,,,,,,,,,,,,,,,,,,47,97,1,0,0,response1disk,8,4,-12,3,1,0,0,rectangle,-12,3,1,0,0,,3,"[251,175,322,306,236,109,312,160,126,25,128,80,132,292,40,145,216,92,187,136]",-12,3,1,0,0,0,3,3,124,1,,,,,,,,,,,,,,,,,,,,,,,
,,,,,,,,,,,,,,,,,,,,,,,,,,,,,,,,,,,,,,,,,,,589cc7bd8bf22a00015b7b30,5fe1920ce66d7fc125cbc35f,2020-12-22_00h31.46.743,FlowerSimilarity_Experiment,2020.1.2,Win32,60,5fe17d4a51f3a9c1a60f9869,,,,,,,,,,,,,,,,,,,3,FF,,4,7.044,,,,,,,,,,,,,,,,,,,,,,,,,,,,,,,,,,21,-94,1,0,0,response3disk,4,5,10,5,1,0,0,rectangle,10,5,1,0,0,,4,"[251,175,322,306,236,109,312,160,126,25,128,80,132,292,40,145,216,92,187,136]",10,5,1,0,0,0,4,4,110,1,,,,,,,,,,,,,,,,,,,,,,,
,,,,,,,,,,,,,,,,,,,,,,,,,,,,,,,,,,,,,,,,,,,589cc7bd8bf22a00015b7b30,5fe1920ce66d7fc125cbc35f,2020-12-22_00h31.46.743,FlowerSimilarity_Experiment,2020.1.2,Win32,60,5fe17d4a51f3a9c1a60f9869,,,,,,,,,,,,,,,,,,,9,PF,,5,6.359,,,,,,,,,,,,,,,,,,,,,,,,,,,,,,,,,,92,-30,1,0,0,response3disk,2,6,-1,4,1,0,0,rectangle,-1,4,1,0,0,,6,"[251,175,322,306,236,109,312,160,126,25,128,80,132,292,40,145,216,92,187,136]",-1,4,1,0,0,0,5,5,157,1,,,,,,,,,,,,,,,,,,,,,,,
,,,,,,,,,,,,,,,,,,,,,,,,,,,,,,,,,,,,,,,,,,,589cc7bd8bf22a00015b7b30,5fe1920ce66d7fc125cbc35f,2020-12-22_00h31.46.743,FlowerSimilarity_Experiment,2020.1.2,Win32,60,5fe17d4a51f3a9c1a60f9869,,,,,,,,,,,,,,,,,,,9,PF,,7,4.335,,,,,,,,,,,,,,,,,,,,,,,,,,,,,,,,,,56,82,1,0,0,response1disk,7,7,-7,8,1,0,0,rectangle,-7,8,1,0,0,,7,"[251,175,322,306,236,109,312,160,126,25,128,80,132,292,40,145,216,92,187,136]",-7,8,1,0,0,0,6,6,121,1,,,,,,,,,,,,,,,,,,,,,,,
,,,,,,,,,,,,,,,,,,,,,,,,,,,,,,,,,,,,,,,,,,,589cc7bd8bf22a00015b7b30,5fe1920ce66d7fc125cbc35f,2020-12-22_00h31.46.743,FlowerSimilarity_Experiment,2020.1.2,Win32,60,5fe17d4a51f3a9c1a60f9869,,,,,,,,,,,,,,,,,,,9,PF,,6,4.233,,,,,,,,,,,,,,,,,,,,,,,,,,,,,,,,,,72,35,1,0,0,response1disk,8,8,1,-11,1,0,0,rectangle,1,-11,1,0,0,,2,"[251,175,322,306,236,109,312,160,126,25,128,80,132,292,40,145,216,92,187,136]",1,-11,1,0,0,0,7,7,67,1,,,,,,,,,,,,,,,,,,,,,,,
,,,,,,,,,,,,,,,,,,,,,,,,,,,,,,,,,,,,,,,,,,,589cc7bd8bf22a00015b7b30,5fe1920ce66d7fc125cbc35f,2020-12-22_00h31.46.743,FlowerSimilarity_Experiment,2020.1.2,Win32,60,5fe17d4a51f3a9c1a60f9869,,,,,,,,,,,,,,,,,,,5,FF,,5,4.198,,,,,,,,,,,,,,,,,,,,,,,,,,,,,,,,,,67,-30,1,0,0,response3disk,7,9,1,-3,1,0,0,rectangle,1,-3,1,0,0,,5,"[251,175,322,306,236,109,312,160,126,25,128,80,132,292,40,145,216,92,187,136]",1,-3,1,0,0,0,8,8,7,1,,,,,,,,,,,,,,,,,,,,,,,
,,,,,,,,,,,,,,,,,,,,,,,,,,,,,,,,,,,,,,,,,,,589cc7bd8bf22a00015b7b30,5fe1920ce66d7fc125cbc35f,2020-12-22_00h31.46.743,FlowerSimilarity_Experiment,2020.1.2,Win32,60,5fe17d4a51f3a9c1a60f9869,,,,,,,,,,,,,,,,,,,2,PF,,6,6.218,,,,,,,,,,,,,,,,,,,,,,,,,,,,,,,,,,89,50,1,0,0,response1disk,4,10,-4,4,1,0,0,rectangle,-4,4,1,0,0,,4,"[251,175,322,306,236,109,312,160,126,25,128,80,132,292,40,145,216,92,187,136]",-4,4,1,0,0,0,9,9,127,1,,,,,,,,,,,,,,,,,,,,,,,
,,,,,,,,,,,,,,,,,,,,,,,,,,,,,,,,,,,,,,,,,,,589cc7bd8bf22a00015b7b30,5fe1920ce66d7fc125cbc35f,2020-12-22_00h31.46.743,FlowerSimilarity_Experiment,2020.1.2,Win32,60,5fe17d4a51f3a9c1a60f9869,,,,,,,,,,,,,,,,,,,8,FF,,0,3.432,,,,,,,,,,,,,,,,,,,,,,,,,,,,,,,,,,-39,86,1,0,0,response7disk,8,11,-13,5,1,0,0,rectangle,-13,5,1,0,0,,2,"[251,175,322,306,236,109,312,160,126,25,128,80,132,292,40,145,216,92,187,136]",-13,5,1,0,0,0,10,10,48,1,,,,,,,,,,,,,,,,,,,,,,,
,,,,,,,,,,,,,,,,,,,,,,,,,,,,,,,,,,,,,,,,,,,589cc7bd8bf22a00015b7b30,5fe1920ce66d7fc125cbc35f,2020-12-22_00h31.46.743,FlowerSimilarity_Experiment,2020.1.2,Win32,60,5fe17d4a51f3a9c1a60f9869,,,,,,,,,,,,,,,,,,,4,PF,,2,3.291,,,,,,,,,,,,,,,,,,,,,,,,,,,,,,,,,,-83,-49,1,0,0,response5disk,7,12,-6,-2,1,0,0,rectangle,-6,-2,1,0,0,,2,"[251,175,322,306,236,109,312,160,126,25,128,80,132,292,40,145,216,92,187,136]",-6,-2,1,0,0,0,11,11,38,1,,,,,,,,,,,,,,,,,,,,,,,
,,,,,,,,,,,,,,,,,,,,,,,,,,,,,,,,,,,,,,,,,,,589cc7bd8bf22a00015b7b30,5fe1920ce66d7fc125cbc35f,2020-12-22_00h31.46.743,FlowerSimilarity_Experiment,2020.1.2,Win32,60,5fe17d4a51f3a9c1a60f9869,,,,,,,,,,,,,,,,,,,4,FF,,7,2.811,,,,,,,,,,,,,,,,,,,,,,,,,,,,,,,,,,40,73,1,0,0,response1disk,8,13,-4,2,1,0,0,rectangle,-4,2,1,0,0,,4,"[251,175,322,306,236,109,312,160,126,25,128,80,132,292,40,145,216,92,187,136]",-4,2,1,0,0,0,12,12,35,1,,,,,,,,,,,,,,,,,,,,,,,
,,,,,,,,,,,,,,,,,,,,,,,,,,,,,,,,,,,,,,,,,,,589cc7bd8bf22a00015b7b30,5fe1920ce66d7fc125cbc35f,2020-12-22_00h31.46.743,FlowerSimilarity_Experiment,2020.1.2,Win32,60,5fe17d4a51f3a9c1a60f9869,,,,,,,,,,,,,,,,,,,6,FF,,5,2.731,,,,,,,,,,,,,,,,,,,,,,,,,,,,,,,,,,77,-28,1,0,0,response3disk,8,14,6,1,1,0,0,rectangle,6,1,1,0,0,,3,"[251,175,322,306,236,109,312,160,126,25,128,80,132,292,40,145,216,92,187,136]",6,1,1,0,0,0,13,13,133,1,,,,,,,,,,,,,,,,,,,,,,,
,,,,,,,,,,,,,,,,,,,,,,,,,,,,,,,,,,,,,,,,,,,589cc7bd8bf22a00015b7b30,5fe1920ce66d7fc125cbc35f,2020-12-22_00h31.46.743,FlowerSimilarity_Experiment,2020.1.2,Win32,60,5fe17d4a51f3a9c1a60f9869,,,,,,,,,,,,,,,,,,,4,FF,,3,2.704,,,,,,,,,,,,,,,,,,,,,,,,,,,,,,,,,,-33,-81,1,0,0,response5disk,3,15,3,13,1,0,0,rectangle,3,13,1,0,0,,3,"[251,175,322,306,236,109,312,160,126,25,128,80,132,292,40,145,216,92,187,136]",3,13,1,0,0,0,14,14,77,1,,,,,,,,,,,,,,,,,,,,,,,
,,,,,,,,,,,,,,,,,,,,,,,,,,,,,,,,,,,,,,,,,,,589cc7bd8bf22a00015b7b30,5fe1920ce66d7fc125cbc35f,2020-12-22_00h31.46.743,FlowerSimilarity_Experiment,2020.1.2,Win32,60,5fe17d4a51f3a9c1a60f9869,,,,,,,,,,,,,,,,,,,4,FF,,6,4.133,,,,,,,,,,,,,,,,,,,,,,,,,,,,,,,,,,81,21,1,0,0,response1disk,9,16,5,4,1,0,0,rectangle,5,4,1,0,0,,3,"[251,175,322,306,236,109,312,160,126,25,128,80,132,292,40,145,216,92,187,136]",5,4,1,0,0,0,15,15,90,1,,,,,,,,,,,,,,,,,,,,,,,
,,,,,,,,,,,,,,,,,,,,,,,,,,,,,,,,,,,,,,,,,,,589cc7bd8bf22a00015b7b30,5fe1920ce66d7fc125cbc35f,2020-12-22_00h31.46.743,FlowerSimilarity_Experiment,2020.1.2,Win32,60,5fe17d4a51f3a9c1a60f9869,,,,,,,,,,,,,,,,,,,6,FF,,4,3.3,,,,,,,,,,,,,,,,,,,,,,,,,,,,,,,,,,27,-85,1,0,0,response3disk,5,17,-2,-6,1,0,0,rectangle,-2,-6,1,0,0,,5,"[251,175,322,306,236,109,312,160,126,25,128,80,132,292,40,145,216,92,187,136]",-2,-6,1,0,0,0,16,16,126,1,,,,,,,,,,,,,,,,,,,,,,,
,,,,,,,,,,,,,,,,,,,,,,,,,,,,,,,,,,,,,,,,,,,589cc7bd8bf22a00015b7b30,5fe1920ce66d7fc125cbc35f,2020-12-22_00h31.46.743,FlowerSimilarity_Experiment,2020.1.2,Win32,60,5fe17d4a51f3a9c1a60f9869,,,,,,,,,,,,,,,,,,,9,FF,,4,3.013,,,,,,,,,,,,,,,,,,,,,,,,,,,,,,,,,,26,-90,1,0,0,response3disk,5,18,-3,-8,1,0,0,rectangle,-3,-8,1,0,0,,3,"[251,175,322,306,236,109,312,160,126,25,128,80,132,292,40,145,216,92,187,136]",-3,-8,1,0,0,0,17,17,128,1,,,,,,,,,,,,,,,,,,,,,,,
,,,,,,,,,,,,,,,,,,,,,,,,,,,,,,,,,,,,,,,,,,,589cc7bd8bf22a00015b7b30,5fe1920ce66d7fc125cbc35f,2020-12-22_00h31.46.743,FlowerSimilarity_Experiment,2020.1.2,Win32,60,5fe17d4a51f3a9c1a60f9869,,,,,,,,,,,,,,,,,,,1,PF,,1,2.89,,,,,,,,,,,,,,,,,,,,,,,,,,,,,,,,,,-81,41,1,0,0,response7disk,9,19,-8,-2,1,0,0,rectangle,-8,-2,1,0,0,,7,"[251,175,322,306,236,109,312,160,126,25,128,80,132,292,40,145,216,92,187,136]",-8,-2,1,0,0,0,18,18,15,1,,,,,,,,,,,,,,,,,,,,,,,
,,,,,,,,,,,,,,,,,,,,,,,,,,,,,,,,,,,,,,,,,,,589cc7bd8bf22a00015b7b30,5fe1920ce66d7fc125cbc35f,2020-12-22_00h31.46.743,FlowerSimilarity_Experiment,2020.1.2,Win32,60,5fe17d4a51f3a9c1a60f9869,,,,,,,,,,,,,,,,,,,7,PF,,5,5.015,,,,,,,,,,,,,,,,,,,,,,,,,,,,,,,,,,66,-32,1,0,0,response3disk,1,20,3,0,1,0,0,rectangle,3,0,1,0,0,,7,"[251,175,322,306,236,109,312,160,126,25,128,80,132,292,40,145,216,92,187,136]",3,0,1,0,0,0,19,19,53,1,,,,,,,,,,,,,,,,,,,,,,,
,,,,,,,,,,,,,,,,,,,,,,,,,,,,,,,,,,,,,,,,,,,589cc7bd8bf22a00015b7b30,5fe1920ce66d7fc125cbc35f,2020-12-22_00h31.46.743,FlowerSimilarity_Experiment,2020.1.2,Win32,60,5fe17d4a51f3a9c1a60f9869,,,,,,,,,,,,,,,,,,,8,FF,,6,2.772,,,,,,,,,,,,,,,,,,,,,,,,,,,,,,,,,,89,50,1,0,0,response1disk,4,21,6,-7,1,0,0,rectangle,6,-7,1,0,0,,6,"[251,175,322,306,236,109,312,160,126,25,128,80,132,292,40,145,216,92,187,136]",6,-7,1,0,0,0,20,20,88,1,,,,,,,,,,,,,,,,,,,,,,,
,,,,,,,,,,,,,,,,,,,,,,,,,,,,,,,,,,,,,,,,,,,589cc7bd8bf22a00015b7b30,5fe1920ce66d7fc125cbc35f,2020-12-22_00h31.46.743,FlowerSimilarity_Experiment,2020.1.2,Win32,60,5fe17d4a51f3a9c1a60f9869,,,,,,,,,,,,,,,,,,,3,FF,,0,1.829,,,,,,,,,,,,,,,,,,,,,,,,,,,,,,,,,,-24,67,1,0,0,response7disk,3,22,0,5,1,0,0,rectangle,0,5,1,0,0,,1,"[251,175,322,306,236,109,312,160,126,25,128,80,132,292,40,145,216,92,187,136]",0,5,1,0,0,0,21,21,68,1,,,,,,,,,,,,,,,,,,,,,,,
,,,,,,,,,,,,,,,,,,,,,,,,,,,,,,,,,,,,,,,,,,,589cc7bd8bf22a00015b7b30,5fe1920ce66d7fc125cbc35f,2020-12-22_00h31.46.743,FlowerSimilarity_Experiment,2020.1.2,Win32,60,5fe17d4a51f3a9c1a60f9869,,,,,,,,,,,,,,,,,,,8,FF,,5,6.684,,,,,,,,,,,,,,,,,,,,,,,,,,,,,,,,,,71,-32,1,0,0,response3disk,1,23,4,9,1,0,0,rectangle,4,9,1,0,0,,4,"[251,175,322,306,236,109,312,160,126,25,128,80,132,292,40,145,216,92,187,136]",4,9,1,0,0,0,22,22,20,1,,,,,,,,,,,,,,,,,,,,,,,
,,,,,,,,,,,,,,,,,,,,,,,,,,,,,,,,,,,,,,,,,,,589cc7bd8bf22a00015b7b30,5fe1920ce66d7fc125cbc35f,2020-12-22_00h31.46.743,FlowerSimilarity_Experiment,2020.1.2,Win32,60,5fe17d4a51f3a9c1a60f9869,,,,,,,,,,,,,,,,,,,6,PF,,2,2.891,,,,,,,,,,,,,,,,,,,,,,,,,,,,,,,,,,-91,-44,1,0,0,response5disk,9,24,3,6,1,0,0,rectangle,3,6,1,0,0,,6,"[251,175,322,306,236,109,312,160,126,25,128,80,132,292,40,145,216,92,187,136]",3,6,1,0,0,0,23,23,45,1,,,,,,,,,,,,,,,,,,,,,,,
,,,,,,,,,,,,,,,,,,,,,,,,,,,,,,,,,,,,,,,,,,,589cc7bd8bf22a00015b7b30,5fe1920ce66d7fc125cbc35f,2020-12-22_00h31.46.743,FlowerSimilarity_Experiment,2020.1.2,Win32,60,5fe17d4a51f3a9c1a60f9869,,,,,,,,,,,,,,,,,,,1,PF,,5,3.234,,,,,,,,,,,,,,,,,,,,,,,,,,,,,,,,,,79,-28,1,0,0,response3disk,8,25,1,0,1,0,0,rectangle,33,-89,1,0,0,4,4,"[251,175,322,306,236,109,312,160,126,25,128,80,132,292,40,145,216,92,187,136]",0,3,1,0,0,0,24,24,65,1,response3disk_3,rectangle,,,,,,,,,,,,,,,,,,,,,
,,,,,,,,,,,,,,,,,,,,,,,,,,,,,,,,,,,,,,,,,,,589cc7bd8bf22a00015b7b30,5fe1920ce66d7fc125cbc35f,2020-12-22_00h31.46.743,FlowerSimilarity_Experiment,2020.1.2,Win32,60,5fe17d4a51f3a9c1a60f9869,,,,,,,,,,,,,,,,,,,2,FF,,0,1.503,,,,,,,,,,,,,,,,,,,,,,,,,,,,,,,,,,-28,60,1,0,0,response7disk,2,26,-5,-2,1,0,0,rectangle,-5,-2,1,0,0,4,6,"[251,175,322,306,236,109,312,160,126,25,128,80,132,292,40,145,216,92,187,136]",-5,-2,1,0,0,0,25,25,142,1,,,,,,,,,,,,,,,,,,,,,,,
,,,,,,,,,,,,,,,,,,,,,,,,,,,,,,,,,,,,,,,,,,,589cc7bd8bf22a00015b7b30,5fe1920ce66d7fc125cbc35f,2020-12-22_00h31.46.743,FlowerSimilarity_Experiment,2020.1.2,Win32,60,5fe17d4a51f3a9c1a60f9869,,,,,,,,,,,,,,,,,,,8,PF,,7,4.332,,,,,,,,,,,,,,,,,,,,,,,,,,,,,,,,,,37,99,1,0,0,response1disk,4,27,-6,4,1,0,0,rectangle,-6,4,1,0,0,4,6,"[251,175,322,306,236,109,312,160,126,25,128,80,132,292,40,145,216,92,187,136]",-6,4,1,0,0,0,26,26,78,1,,,,,,,,,,,,,,,,,,,,,,,
,,,,,,,,,,,,,,,,,,,,,,,,,,,,,,,,,,,,,,,,,,,589cc7bd8bf22a00015b7b30,5fe1920ce66d7fc125cbc35f,2020-12-22_00h31.46.743,FlowerSimilarity_Experiment,2020.1.2,Win32,60,5fe17d4a51f3a9c1a60f9869,,,,,,,,,,,,,,,,,,,9,FF,,6,3.215,,,,,,,,,,,,,,,,,,,,,,,,,,,,,,,,,,87,31,1,0,0,response1disk,2,28,5,-1,1,0,0,rectangle,5,-1,1,0,0,4,3,"[251,175,322,306,236,109,312,160,126,25,128,80,132,292,40,145,216,92,187,136]",5,-1,1,0,0,0,27,27,11,1,,,,,,,,,,,,,,,,,,,,,,,
,,,,,,,,,,,,,,,,,,,,,,,,,,,,,,,,,,,,,,,,,,,589cc7bd8bf22a00015b7b30,5fe1920ce66d7fc125cbc35f,2020-12-22_00h31.46.743,FlowerSimilarity_Experiment,2020.1.2,Win32,60,5fe17d4a51f3a9c1a60f9869,,,,,,,,,,,,,,,,,,,4,FF,,7,2.691,,,,,,,,,,,,,,,,,,,,,,,,,,,,,,,,,,35,88,1,0,0,response1disk,6,29,-7,2,1,0,0,rectangle,-7,2,1,0,0,4,2,"[251,175,322,306,236,109,312,160,126,25,128,80,132,292,40,145,216,92,187,136]",-7,2,1,0,0,0,28,28,122,1,,,,,,,,,,,,,,,,,,,,,,,
,,,,,,,,,,,,,,,,,,,,,,,,,,,,,,,,,,,,,,,,,,,589cc7bd8bf22a00015b7b30,5fe1920ce66d7fc125cbc35f,2020-12-22_00h31.46.743,FlowerSimilarity_Experiment,2020.1.2,Win32,60,5fe17d4a51f3a9c1a60f9869,,,,,,,,,,,,,,,,,,,1,PF,,0,1.825,,,,,,,,,,,,,,,,,,,,,,,,,,,,,,,,,,-32,75,1,0,0,response7disk,1,30,-16,4,1,0,0,rectangle,-16,4,1,0,0,4,5,"[251,175,322,306,236,109,312,160,126,25,128,80,132,292,40,145,216,92,187,136]",-16,4,1,0,0,0,29,29,76,1,,,,,,,,,,,,,,,,,,,,,,,
,,,,,,,,,,,,,,,,,,,,,,,,,,,,,,,,,,,,,,,,,,,589cc7bd8bf22a00015b7b30,5fe1920ce66d7fc125cbc35f,2020-12-22_00h31.46.743,FlowerSimilarity_Experiment,2020.1.2,Win32,60,5fe17d4a51f3a9c1a60f9869,,,,,,,,,,,,,,,,,,,4,PF,,1,2.47,,,,,,,,,,,,,,,,,,,,,,,,,,,,,,,,,,-82,38,1,0,0,response7disk,4,31,-23,-4,1,0,0,rectangle,-23,-4,1,0,0,4,5,"[251,175,322,306,236,109,312,160,126,25,128,80,132,292,40,145,216,92,187,136]",-23,-4,1,0,0,0,30,30,70,1,,,,,,,,,,,,,,,,,,,,,,,
,,,,,,,,,,,,,,,,,,,,,,,,,,,,,,,,,,,,,,,,,,,589cc7bd8bf22a00015b7b30,5fe1920ce66d7fc125cbc35f,2020-12-22_00h31.46.743,FlowerSimilarity_Experiment,2020.1.2,Win32,60,5fe17d4a51f3a9c1a60f9869,,,,,,,,,,,,,,,,,,,9,FF,,1,2.94,,,,,,,,,,,,,,,,,,,,,,,,,,,,,,,,,,-64,34,1,0,0,response7disk,1,32,-9,-7,1,0,0,rectangle,-9,-7,1,0,0,4,1,"[251,175,322,306,236,109,312,160,126,25,128,80,132,292,40,145,216,92,187,136]",-9,-7,1,0,0,0,31,31,111,1,,,,,,,,,,,,,,,,,,,,,,,
,,,,,,,,,,,,,,,,,,,,,,,,,,,,,,,,,,,,,,,,,,,589cc7bd8bf22a00015b7b30,5fe1920ce66d7fc125cbc35f,2020-12-22_00h31.46.743,FlowerSimilarity_Experiment,2020.1.2,Win32,60,5fe17d4a51f3a9c1a60f9869,,,,,,,,,,,,,,,,,,,7,PF,,7,4.695,,,,,,,,,,,,,,,,,,,,,,,,,,,,,,,,,,54,87,1,0,0,response1disk,6,33,0,-4,1,0,0,rectangle,0,-4,1,0,0,4,3,"[251,175,322,306,236,109,312,160,126,25,128,80,132,292,40,145,216,92,187,136]",0,-4,1,0,0,0,32,32,29,1,,,,,,,,,,,,,,,,,,,,,,,
,,,,,,,,,,,,,,,,,,,,,,,,,,,,,,,,,,,,,,,,,,,589cc7bd8bf22a00015b7b30,5fe1920ce66d7fc125cbc35f,2020-12-22_00h31.46.743,FlowerSimilarity_Experiment,2020.1.2,Win32,60,5fe17d4a51f3a9c1a60f9869,,,,,,,,,,,,,,,,,,,5,FF,,6,3.595,,,,,,,,,,,,,,,,,,,,,,,,,,,,,,,,,,81,28,1,0,0,response1disk,9,34,-8,-6,1,0,0,rectangle,-8,-6,1,0,0,4,4,"[251,175,322,306,236,109,312,160,126,25,128,80,132,292,40,145,216,92,187,136]",-8,-6,1,0,0,0,33,33,61,1,,,,,,,,,,,,,,,,,,,,,,,
,,,,,,,,,,,,,,,,,,,,,,,,,,,,,,,,,,,,,,,,,,,589cc7bd8bf22a00015b7b30,5fe1920ce66d7fc125cbc35f,2020-12-22_00h31.46.743,FlowerSimilarity_Experiment,2020.1.2,Win32,60,5fe17d4a51f3a9c1a60f9869,,,,,,,,,,,,,,,,,,,2,PF,,5,2.969,,,,,,,,,,,,,,,,,,,,,,,,,,,,,,,,,,77,-54,1,0,0,response3disk,8,35,-16,-5,1,0,0,rectangle,-16,-5,1,0,0,4,1,"[251,175,322,306,236,109,312,160,126,25,128,80,132,292,40,145,216,92,187,136]",-16,-5,1,0,0,0,34,34,52,1,,,,,,,,,,,,,,,,,,,,,,,
,,,,,,,,,,,,,,,,,,,,,,,,,,,,,,,,,,,,,,,,,,,589cc7bd8bf22a00015b7b30,5fe1920ce66d7fc125cbc35f,2020-12-22_00h31.46.743,FlowerSimilarity_Experiment,2020.1.2,Win32,60,5fe17d4a51f3a9c1a60f9869,,,,,,,,,,,,,,,,,,,8,FF,,3,2.607,,,,,,,,,,,,,,,,,,,,,,,,,,,,,,,,,,-50,-82,1,0,0,response5disk,6,36,1,0,1,0,0,rectangle,1,0,1,0,0,4,6,"[251,175,322,306,236,109,312,160,126,25,128,80,132,292,40,145,216,92,187,136]",1,0,1,0,0,0,35,35,37,1,,,,,,,,,,,,,,,,,,,,,,,
,,,,,,,,,,,,,,,,,,,,,,,,,,,,,,,,,,,,,,,,,,,589cc7bd8bf22a00015b7b30,5fe1920ce66d7fc125cbc35f,2020-12-22_00h31.46.743,FlowerSimilarity_Experiment,2020.1.2,Win32,60,5fe17d4a51f3a9c1a60f9869,,,,,,,,,,,,,,,,,,,4,FF,,0,2.229,,,,,,,,,,,,,,,,,,,,,,,,,,,,,,,,,,-36,93,1,0,0,response7disk,4,37,4,1,1,0,0,rectangle,4,1,1,0,0,4,6,"[251,175,322,306,236,109,312,160,126,25,128,80,132,292,40,145,216,92,187,136]",4,1,1,0,0,0,36,36,84,1,,,,,,,,,,,,,,,,,,,,,,,
,,,,,,,,,,,,,,,,,,,,,,,,,,,,,,,,,,,,,,,,,,,589cc7bd8bf22a00015b7b30,5fe1920ce66d7fc125cbc35f,2020-12-22_00h31.46.743,FlowerSimilarity_Experiment,2020.1.2,Win32,60,5fe17d4a51f3a9c1a60f9869,,,,,,,,,,,,,,,,,,,5,FF,,7,4.034,,,,,,,,,,,,,,,,,,,,,,,,,,,,,,,,,,52,80,1,0,0,response1disk,4,38,1,2,1,0,0,rectangle,1,2,1,0,0,4,7,"[251,175,322,306,236,109,312,160,126,25,128,80,132,292,40,145,216,92,187,136]",1,2,1,0,0,0,37,37,8,1,,,,,,,,,,,,,,,,,,,,,,,
,,,,,,,,,,,,,,,,,,,,,,,,,,,,,,,,,,,,,,,,,,,589cc7bd8bf22a00015b7b30,5fe1920ce66d7fc125cbc35f,2020-12-22_00h31.46.743,FlowerSimilarity_Experiment,2020.1.2,Win32,60,5fe17d4a51f3a9c1a60f9869,,,,,,,,,,,,,,,,,,,1,PF,,3,2.75,,,,,,,,,,,,,,,,,,,,,,,,,,,,,,,,,,-48,-80,1,0,0,response5disk,6,39,-3,-9,1,0,0,rectangle,-3,-9,1,0,0,4,7,"[251,175,322,306,236,109,312,160,126,25,128,80,132,292,40,145,216,92,187,136]",-3,-9,1,0,0,0,38,38,144,1,,,,,,,,,,,,,,,,,,,,,,,
,,,,,,,,,,,,,,,,,,,,,,,,,,,,,,,,,,,,,,,,,,,589cc7bd8bf22a00015b7b30,5fe1920ce66d7fc125cbc35f,2020-12-22_00h31.46.743,FlowerSimilarity_Experiment,2020.1.2,Win32,60,5fe17d4a51f3a9c1a60f9869,,,,,,,,,,,,,,,,,,,4,PF,,3,4.471,,,,,,,,,,,,,,,,,,,,,,,,,,,,,,,,,,-43,-83,1,0,0,response5disk,3,40,-5,-2,1,0,0,rectangle,-33,93,1,0,0,0,0,"[251,175,322,306,236,109,312,160,126,25,128,80,132,292,40,145,216,92,187,136]",-4,-2,1,0,0,0,39,39,89,1,response7disk_3,rectangle,,,,,,,,,,,,,,,,,,,,,
,,,,,,,,,,,,,,,,,,,,,,,,,,,,,,,,,,,,,,,,,,,589cc7bd8bf22a00015b7b30,5fe1920ce66d7fc125cbc35f,2020-12-22_00h31.46.743,FlowerSimilarity_Experiment,2020.1.2,Win32,60,5fe17d4a51f3a9c1a60f9869,,,,,,,,,,,,,,,,,,,5,PF,,4,5.907,,,,,,,,,,,,,,,,,,,,,,,,,,,,,,,,,,24,-80,1,0,0,response3disk,6,41,-6,-2,1,0,0,rectangle,-6,-2,1,0,0,0,3,"[251,175,322,306,236,109,312,160,126,25,128,80,132,292,40,145,216,92,187,136]",-6,-2,1,0,0,0,40,40,103,1,,,,,,,,,,,,,,,,,,,,,,,
,,,,,,,,,,,,,,,,,,,,,,,,,,,,,,,,,,,,,,,,,,,589cc7bd8bf22a00015b7b30,5fe1920ce66d7fc125cbc35f,2020-12-22_00h31.46.743,FlowerSimilarity_Experiment,2020.1.2,Win32,60,5fe17d4a51f3a9c1a60f9869,,,,,,,,,,,,,,,,,,,9,PF,,6,2.69,,,,,,,,,,,,,,,,,,,,,,,,,,,,,,,,,,90,64,1,0,0,response1disk,4,42,13,5,1,0,0,rectangle,13,5,1,0,0,0,5,"[251,175,322,306,236,109,312,160,126,25,128,80,132,292,40,145,216,92,187,136]",13,5,1,0,0,0,41,41,114,1,,,,,,,,,,,,,,,,,,,,,,,
,,,,,,,,,,,,,,,,,,,,,,,,,,,,,,,,,,,,,,,,,,,589cc7bd8bf22a00015b7b30,5fe1920ce66d7fc125cbc35f,2020-12-22_00h31.46.743,FlowerSimilarity_Experiment,2020.1.2,Win32,60,5fe17d4a51f3a9c1a60f9869,,,,,,,,,,,,,,,,,,,2,FF,,5,6.719,,,,,,,,,,,,,,,,,,,,,,,,,,,,,,,,,,64,-45,1,0,0,response3disk,3,43,4,0,1,0,0,rectangle,4,0,1,0,0,0,6,"[251,175,322,306,236,109,312,160,126,25,128,80,132,292,40,145,216,92,187,136]",4,0,1,0,0,0,42,42,104,1,,,,,,,,,,,,,,,,,,,,,,,
,,,,,,,,,,,,,,,,,,,,,,,,,,,,,,,,,,,,,,,,,,,589cc7bd8bf22a00015b7b30,5fe1920ce66d7fc125cbc35f,2020-12-22_00h31.46.743,FlowerSimilarity_Experiment,2020.1.2,Win32,60,5fe17d4a51f3a9c1a60f9869,,,,,,,,,,,,,,,,,,,9,FF,,0,1.666,,,,,,,,,,,,,,,,,,,,,,,,,,,,,,,,,,-35,80,1,0,0,response7disk,9,44,0,-16,1,0,0,rectangle,0,-16,1,0,0,0,6,"[251,175,322,306,236,109,312,160,126,25,128,80,132,292,40,145,216,92,187,136]",0,-16,1,0,0,0,43,43,17,1,,,,,,,,,,,,,,,,,,,,,,,
,,,,,,,,,,,,,,,,,,,,,,,,,,,,,,,,,,,,,,,,,,,589cc7bd8bf22a00015b7b30,5fe1920ce66d7fc125cbc35f,2020-12-22_00h31.46.743,FlowerSimilarity_Experiment,2020.1.2,Win32,60,5fe17d4a51f3a9c1a60f9869,,,,,,,,,,,,,,,,,,,2,PF,,4,3.829,,,,,,,,,,,,,,,,,,,,,,,,,,,,,,,,,,23,-84,1,0,0,response3disk,3,45,-2,-4,1,0,0,rectangle,-2,-4,1,0,0,0,5,"[251,175,322,306,236,109,312,160,126,25,128,80,132,292,40,145,216,92,187,136]",-2,-4,1,0,0,0,44,44,69,1,,,,,,,,,,,,,,,,,,,,,,,
,,,,,,,,,,,,,,,,,,,,,,,,,,,,,,,,,,,,,,,,,,,589cc7bd8bf22a00015b7b30,5fe1920ce66d7fc125cbc35f,2020-12-22_00h31.46.743,FlowerSimilarity_Experiment,2020.1.2,Win32,60,5fe17d4a51f3a9c1a60f9869,,,,,,,,,,,,,,,,,,,5,FF,,3,2.982,,,,,,,,,,,,,,,,,,,,,,,,,,,,,,,,,,-47,-82,1,0,0,response5disk,2,46,2,-6,1,0,0,rectangle,2,-6,1,0,0,0,3,"[251,175,322,306,236,109,312,160,126,25,128,80,132,292,40,145,216,92,187,136]",2,-6,1,0,0,0,45,45,55,1,,,,,,,,,,,,,,,,,,,,,,,
,,,,,,,,,,,,,,,,,,,,,,,,,,,,,,,,,,,,,,,,,,,589cc7bd8bf22a00015b7b30,5fe1920ce66d7fc125cbc35f,2020-12-22_00h31.46.743,FlowerSimilarity_Experiment,2020.1.2,Win32,60,5fe17d4a51f3a9c1a60f9869,,,,,,,,,,,,,,,,,,,3,PF,,5,2.915,,,,,,,,,,,,,,,,,,,,,,,,,,,,,,,,,,80,-42,1,0,0,response3disk,8,47,8,-2,1,0,0,rectangle,8,-2,1,0,0,0,3,"[251,175,322,306,236,109,312,160,126,25,128,80,132,292,40,145,216,92,187,136]",8,-2,1,0,0,0,46,46,3,1,,,,,,,,,,,,,,,,,,,,,,,
,,,,,,,,,,,,,,,,,,,,,,,,,,,,,,,,,,,,,,,,,,,589cc7bd8bf22a00015b7b30,5fe1920ce66d7fc125cbc35f,2020-12-22_00h31.46.743,FlowerSimilarity_Experiment,2020.1.2,Win32,60,5fe17d4a51f3a9c1a60f9869,,,,,,,,,,,,,,,,,,,7,PF,,0,1.726,,,,,,,,,,,,,,,,,,,,,,,,,,,,,,,,,,-37,73,1,0,0,response7disk,7,48,-13,10,1,0,0,rectangle,-13,10,1,0,0,0,6,"[251,175,322,306,236,109,312,160,126,25,128,80,132,292,40,145,216,92,187,136]",-13,10,1,0,0,0,47,47,51,1,,,,,,,,,,,,,,,,,,,,,,,
,,,,,,,,,,,,,,,,,,,,,,,,,,,,,,,,,,,,,,,,,,,589cc7bd8bf22a00015b7b30,5fe1920ce66d7fc125cbc35f,2020-12-22_00h31.46.743,FlowerSimilarity_Experiment,2020.1.2,Win32,60,5fe17d4a51f3a9c1a60f9869,,,,,,,,,,,,,,,,,,,2,FF,,3,2.048,,,,,,,,,,,,,,,,,,,,,,,,,,,,,,,,,,-43,-82,1,0,0,response5disk,5,49,3,2,1,0,0,rectangle,3,2,1,0,0,0,3,"[251,175,322,306,236,109,312,160,126,25,128,80,132,292,40,145,216,92,187,136]",3,2,1,0,0,0,48,48,80,1,,,,,,,,,,,,,,,,,,,,,,,
,,,,,,,,,,,,,,,,,,,,,,,,,,,,,,,,,,,,,,,,,,,589cc7bd8bf22a00015b7b30,5fe1920ce66d7fc125cbc35f,2020-12-22_00h31.46.743,FlowerSimilarity_Experiment,2020.1.2,Win32,60,5fe17d4a51f3a9c1a60f9869,,,,,,,,,,,,,,,,,,,8,PF,,3,1.865,,,,,,,,,,,,,,,,,,,,,,,,,,,,,,,,,,-38,-95,1,0,0,response5disk,2,50,2,2,1,0,0,rectangle,2,2,1,0,0,0,7,"[251,175,322,306,236,109,312,160,126,25,128,80,132,292,40,145,216,92,187,136]",2,2,1,0,0,0,49,49,83,1,,,,,,,,,,,,,,,,,,,,,,,
,,,,,,,,,,,,,,,,,,,,,,,,,,,,,,,,,,,,,,,,,,,589cc7bd8bf22a00015b7b30,5fe1920ce66d7fc125cbc35f,2020-12-22_00h31.46.743,FlowerSimilarity_Experiment,2020.1.2,Win32,60,5fe17d4a51f3a9c1a60f9869,,,,,,,,,,,,,,,,,,,2,FF,,5,3.851,,,,,,,,,,,,,,,,,,,,,,,,,,,,,,,,,,71,-25,1,0,0,response3disk,6,51,-8,0,1,0,0,rectangle,-8,0,1,0,0,0,7,"[251,175,322,306,236,109,312,160,126,25,128,80,132,292,40,145,216,92,187,136]",-8,0,1,0,0,0,50,50,40,1,,,,,,,,,,,,,,,,,,,,,,,
,,,,,,,,,,,,,,,,,,,,,,,,,,,,,,,,,,,,,,,,,,,589cc7bd8bf22a00015b7b30,5fe1920ce66d7fc125cbc35f,2020-12-22_00h31.46.743,FlowerSimilarity_Experiment,2020.1.2,Win32,60,5fe17d4a51f3a9c1a60f9869,,,,,,,,,,,,,,,,,,,6,FF,,6,5.478,,,,,,,,,,,,,,,,,,,,,,,,,,,,,,,,,,85,40,1,0,0,response1disk,7,52,4,-2,1,0,0,rectangle,4,-2,1,0,0,0,1,"[251,175,322,306,236,109,312,160,126,25,128,80,132,292,40,145,216,92,187,136]",4,-2,1,0,0,0,51,51,18,1,,,,,,,,,,,,,,,,,,,,,,,
,,,,,,,,,,,,,,,,,,,,,,,,,,,,,,,,,,,,,,,,,,,589cc7bd8bf22a00015b7b30,5fe1920ce66d7fc125cbc35f,2020-12-22_00h31.46.743,FlowerSimilarity_Experiment,2020.1.2,Win32,60,5fe17d4a51f3a9c1a60f9869,,,,,,,,,,,,,,,,,,,2,FF,,5,4.875,,,,,,,,,,,,,,,,,,,,,,,,,,,,,,,,,,67,-34,1,0,0,response3disk,1,53,9,-4,1,0,0,rectangle,9,-4,1,0,0,0,0,"[251,175,322,306,236,109,312,160,126,25,128,80,132,292,40,145,216,92,187,136]",9,-4,1,0,0,0,52,52,85,1,,,,,,,,,,,,,,,,,,,,,,,
,,,,,,,,,,,,,,,,,,,,,,,,,,,,,,,,,,,,,,,,,,,589cc7bd8bf22a00015b7b30,5fe1920ce66d7fc125cbc35f,2020-12-22_00h31.46.743,FlowerSimilarity_Experiment,2020.1.2,Win32,60,5fe17d4a51f3a9c1a60f9869,,,,,,,,,,,,,,,,,,,7,FF,,5,2.004,,,,,,,,,,,,,,,,,,,,,,,,,,,,,,,,,,73,-26,1,0,0,response3disk,1,54,4,-1,1,0,0,rectangle,4,-1,1,0,0,0,4,"[251,175,322,306,236,109,312,160,126,25,128,80,132,292,40,145,216,92,187,136]",4,-1,1,0,0,0,53,53,132,1,,,,,,,,,,,,,,,,,,,,,,,
,,,,,,,,,,,,,,,,,,,,,,,,,,,,,,,,,,,,,,,,,,,589cc7bd8bf22a00015b7b30,5fe1920ce66d7fc125cbc35f,2020-12-22_00h31.46.743,FlowerSimilarity_Experiment,2020.1.2,Win32,60,5fe17d4a51f3a9c1a60f9869,,,,,,,,,,,,,,,,,,,5,PF,,0,1.79,,,,,,,,,,,,,,,,,,,,,,,,,,,,,,,,,,-31,87,1,0,0,response7disk,5,55,-10,7,1,0,0,rectangle,-10,7,1,0,0,0,5,"[251,175,322,306,236,109,312,160,126,25,128,80,132,292,40,145,216,92,187,136]",-10,7,1,0,0,0,54,54,94,1,,,,,,,,,,,,,,,,,,,,,,,
,,,,,,,,,,,,,,,,,,,,,,,,,,,,,,,,,,,,,,,,,,,589cc7bd8bf22a00015b7b30,5fe1920ce66d7fc125cbc35f,2020-12-22_00h31.46.743,FlowerSimilarity_Experiment,2020.1.2,Win32,60,5fe17d4a51f3a9c1a60f9869,,,,,,,,,,,,,,,,,,,9,PF,,4,3.552,,,,,,,,,,,,,,,,,,,,,,,,,,,,,,,,,,32,-91,1,0,0,response3disk,5,56,6,12,1,0,0,rectangle,6,12,1,0,0,0,7,"[251,175,322,306,236,109,312,160,126,25,128,80,132,292,40,145,216,92,187,136]",6,12,1,0,0,0,55,55,134,1,,,,,,,,,,,,,,,,,,,,,,,
,,,,,,,,,,,,,,,,,,,,,,,,,,,,,,,,,,,,,,,,,,,589cc7bd8bf22a00015b7b30,5fe1920ce66d7fc125cbc35f,2020-12-22_00h31.46.743,FlowerSimilarity_Experiment,2020.1.2,Win32,60,5fe17d4a51f3a9c1a60f9869,,,,,,,,,,,,,,,,,,,8,FF,,5,2.99,,,,,,,,,,,,,,,,,,,,,,,,,,,,,,,,,,86,-23,1,0,0,response3disk,7,57,6,3,1,0,0,rectangle,6,3,1,0,0,0,0,"[251,175,322,306,236,109,312,160,126,25,128,80,132,292,40,145,216,92,187,136]",6,3,1,0,0,0,56,56,86,1,,,,,,,,,,,,,,,,,,,,,,,
,,,,,,,,,,,,,,,,,,,,,,,,,,,,,,,,,,,,,,,,,,,589cc7bd8bf22a00015b7b30,5fe1920ce66d7fc125cbc35f,2020-12-22_00h31.46.743,FlowerSimilarity_Experiment,2020.1.2,Win32,60,5fe17d4a51f3a9c1a60f9869,,,,,,,,,,,,,,,,,,,6,PF,,3,2.987,,,,,,,,,,,,,,,,,,,,,,,,,,,,,,,,,,-31,-88,1,0,0,response5disk,1,58,1,-3,1,0,0,rectangle,1,-3,1,0,0,0,6,"[251,175,322,306,236,109,312,160,126,25,128,80,132,292,40,145,216,92,187,136]",1,-3,1,0,0,0,57,57,46,1,,,,,,,,,,,,,,,,,,,,,,,
,,,,,,,,,,,,,,,,,,,,,,,,,,,,,,,,,,,,,,,,,,,589cc7bd8bf22a00015b7b30,5fe1920ce66d7fc125cbc35f,2020-12-22_00h31.46.743,FlowerSimilarity_Experiment,2020.1.2,Win32,60,5fe17d4a51f3a9c1a60f9869,,,,,,,,,,,,,,,,,,,1,PF,,6,2.99,,,,,,,,,,,,,,,,,,,,,,,,,,,,,,,,,,79,46,1,0,0,response1disk,4,59,12,-6,1,0,0,rectangle,12,-6,1,0,0,0,7,"[251,175,322,306,236,109,312,160,126,25,128,80,132,292,40,145,216,92,187,136]",12,-6,1,0,0,0,58,58,139,1,,,,,,,,,,,,,,,,,,,,,,,
,,,,,,,,,,,,,,,,,,,,,,,,,,,,,,,,,,,,,,,,,,,589cc7bd8bf22a00015b7b30,5fe1920ce66d7fc125cbc35f,2020-12-22_00h31.46.743,FlowerSimilarity_Experiment,2020.1.2,Win32,60,5fe17d4a51f3a9c1a60f9869,,,,,,,,,,,,,,,,,,,5,PF,,3,2.19,,,,,,,,,,,,,,,,,,,,,,,,,,,,,,,,,,-34,-82,1,0,0,response5disk,2,60,2,-9,1,0,0,rectangle,2,-9,1,0,0,0,6,"[251,175,322,306,236,109,312,160,126,25,128,80,132,292,40,145,216,92,187,136]",2,-9,1,0,0,0,59,59,129,1,,,,,,,,,,,,,,,,,,,,,,,
,,,,,,,,,,,,,,,,,,,,,,,,,,,,,,,,,,,,,,,,,,,589cc7bd8bf22a00015b7b30,5fe1920ce66d7fc125cbc35f,2020-12-22_00h31.46.743,FlowerSimilarity_Experiment,2020.1.2,Win32,60,5fe17d4a51f3a9c1a60f9869,,,,,,,,,,,,,,,,,,,7,FF,,6,3.071,,,,,,,,,,,,,,,,,,,,,,,,,,,,,,,,,,68,20,1,0,0,response1disk,6,61,-8,3,1,0,0,rectangle,-8,3,1,0,0,0,7,"[251,175,322,306,236,109,312,160,126,25,128,80,132,292,40,145,216,92,187,136]",-8,3,1,0,0,0,60,60,31,1,,,,,,,,,,,,,,,,,,,,,,,
,,,,,,,,,,,,,,,,,,,,,,,,,,,,,,,,,,,,,,,,,,,589cc7bd8bf22a00015b7b30,5fe1920ce66d7fc125cbc35f,2020-12-22_00h31.46.743,FlowerSimilarity_Experiment,2020.1.2,Win32,60,5fe17d4a51f3a9c1a60f9869,,,,,,,,,,,,,,,,,,,7,FF,,5,4.634,,,,,,,,,,,,,,,,,,,,,,,,,,,,,,,,,,87,-54,1,0,0,response3disk,8,62,6,-4,1,0,0,rectangle,6,-4,1,0,0,0,2,"[251,175,322,306,236,109,312,160,126,25,128,80,132,292,40,145,216,92,187,136]",6,-4,1,0,0,0,61,61,97,1,,,,,,,,,,,,,,,,,,,,,,,
,,,,,,,,,,,,,,,,,,,,,,,,,,,,,,,,,,,,,,,,,,,589cc7bd8bf22a00015b7b30,5fe1920ce66d7fc125cbc35f,2020-12-22_00h31.46.743,FlowerSimilarity_Experiment,2020.1.2,Win32,60,5fe17d4a51f3a9c1a60f9869,,,,,,,,,,,,,,,,,,,8,PF,,4,3.25,,,,,,,,,,,,,,,,,,,,,,,,,,,,,,,,,,31,-92,1,0,0,response3disk,3,63,2,-5,1,0,0,rectangle,2,-5,1,0,0,0,2,"[251,175,322,306,236,109,312,160,126,25,128,80,132,292,40,145,216,92,187,136]",2,-5,1,0,0,0,62,62,71,1,,,,,,,,,,,,,,,,,,,,,,,
,,,,,,,,,,,,,,,,,,,,,,,,,,,,,,,,,,,,,,,,,,,589cc7bd8bf22a00015b7b30,5fe1920ce66d7fc125cbc35f,2020-12-22_00h31.46.743,FlowerSimilarity_Experiment,2020.1.2,Win32,60,5fe17d4a51f3a9c1a60f9869,,,,,,,,,,,,,,,,,,,6,FF,,5,5.538,,,,,,,,,,,,,,,,,,,,,,,,,,,,,,,,,,74,-31,1,0,0,response3disk,3,64,3,0,1,0,0,rectangle,3,0,1,0,0,0,1,"[251,175,322,306,236,109,312,160,126,25,128,80,132,292,40,145,216,92,187,136]",3,0,1,0,0,0,63,63,21,1,,,,,,,,,,,,,,,,,,,,,,,
,,,,,,,,,,,,,,,,,,,,,,,,,,,,,,,,,,,,,,,,,,,589cc7bd8bf22a00015b7b30,5fe1920ce66d7fc125cbc35f,2020-12-22_00h31.46.743,FlowerSimilarity_Experiment,2020.1.2,Win32,60,5fe17d4a51f3a9c1a60f9869,,,,,,,,,,,,,,,,,,,9,FF,,5,2.568,,,,,,,,,,,,,,,,,,,,,,,,,,,,,,,,,,54,-31,1,0,0,response3disk,3,65,2,-3,1,0,0,rectangle,2,-3,1,0,0,0,1,"[251,175,322,306,236,109,312,160,126,25,128,80,132,292,40,145,216,92,187,136]",2,-3,1,0,0,0,64,64,141,1,,,,,,,,,,,,,,,,,,,,,,,
,,,,,,,,,,,,,,,,,,,,,,,,,,,,,,,,,,,,,,,,,,,589cc7bd8bf22a00015b7b30,5fe1920ce66d7fc125cbc35f,2020-12-22_00h31.46.743,FlowerSimilarity_Experiment,2020.1.2,Win32,60,5fe17d4a51f3a9c1a60f9869,,,,,,,,,,,,,,,,,,,5,PF,,7,2.947,,,,,,,,,,,,,,,,,,,,,,,,,,,,,,,,,,44,89,1,0,0,response1disk,4,66,-17,1,1,0,0,rectangle,-17,1,1,0,0,0,3,"[251,175,322,306,236,109,312,160,126,25,128,80,132,292,40,145,216,92,187,136]",-17,1,1,0,0,0,65,65,54,1,,,,,,,,,,,,,,,,,,,,,,,
,,,,,,,,,,,,,,,,,,,,,,,,,,,,,,,,,,,,,,,,,,,589cc7bd8bf22a00015b7b30,5fe1920ce66d7fc125cbc35f,2020-12-22_00h31.46.743,FlowerSimilarity_Experiment,2020.1.2,Win32,60,5fe17d4a51f3a9c1a60f9869,,,,,,,,,,,,,,,,,,,7,PF,,4,4.014,,,,,,,,,,,,,,,,,,,,,,,,,,,,,,,,,,21,-83,1,0,0,response3disk,2,67,-9,8,1,0,0,rectangle,-9,8,1,0,0,0,5,"[251,175,322,306,236,109,312,160,126,25,128,80,132,292,40,145,216,92,187,136]",-9,8,1,0,0,0,66,66,32,1,,,,,,,,,,,,,,,,,,,,,,,
,,,,,,,,,,,,,,,,,,,,,,,,,,,,,,,,,,,,,,,,,,,589cc7bd8bf22a00015b7b30,5fe1920ce66d7fc125cbc35f,2020-12-22_00h31.46.743,FlowerSimilarity_Experiment,2020.1.2,Win32,60,5fe17d4a51f3a9c1a60f9869,,,,,,,,,,,,,,,,,,,8,PF,,6,3.271,,,,,,,,,,,,,,,,,,,,,,,,,,,,,,,,,,87,50,1,0,0,response1disk,1,68,4,2,1,0,0,rectangle,4,2,1,0,0,0,4,"[251,175,322,306,236,109,312,160,126,25,128,80,132,292,40,145,216,92,187,136]",4,2,1,0,0,0,67,67,57,1,,,,,,,,,,,,,,,,,,,,,,,
,,,,,,,,,,,,,,,,,,,,,,,,,,,,,,,,,,,,,,,,,,,589cc7bd8bf22a00015b7b30,5fe1920ce66d7fc125cbc35f,2020-12-22_00h31.46.743,FlowerSimilarity_Experiment,2020.1.2,Win32,60,5fe17d4a51f3a9c1a60f9869,,,,,,,,,,,,,,,,,,,4,PF,,4,4.796,,,,,,,,,,,,,,,,,,,,,,,,,,,,,,,,,,18,-95,1,0,0,response3disk,2,69,-3,-11,1,0,0,rectangle,-3,-11,1,0,0,0,3,"[251,175,322,306,236,109,312,160,126,25,128,80,132,292,40,145,216,92,187,136]",-3,-11,1,0,0,0,68,68,108,1,,,,,,,,,,,,,,,,,,,,,,,
,,,,,,,,,,,,,,,,,,,,,,,,,,,,,,,,,,,,,,,,,,,589cc7bd8bf22a00015b7b30,5fe1920ce66d7fc125cbc35f,2020-12-22_00h31.46.743,FlowerSimilarity_Experiment,2020.1.2,Win32,60,5fe17d4a51f3a9c1a60f9869,,,,,,,,,,,,,,,,,,,9,FF,,3,4.195,,,,,,,,,,,,,,,,,,,,,,,,,,,,,,,,,,-71,-81,1,0,0,response5disk,6,70,-7,-7,1,0,0,rectangle,-7,-7,1,0,0,0,1,"[251,175,322,306,236,109,312,160,126,25,128,80,132,292,40,145,216,92,187,136]",-7,-7,1,0,0,0,69,69,117,1,,,,,,,,,,,,,,,,,,,,,,,
,,,,,,,,,,,,,,,,,,,,,,,,,,,,,,,,,,,,,,,,,,,589cc7bd8bf22a00015b7b30,5fe1920ce66d7fc125cbc35f,2020-12-22_00h31.46.743,FlowerSimilarity_Experiment,2020.1.2,Win32,60,5fe17d4a51f3a9c1a60f9869,,,,,,,,,,,,,,,,,,,9,FF,,5,3.754,,,,,,,,,,,,,,,,,,,,,,,,,,,,,,,,,,65,-49,1,0,0,response3disk,7,71,3,1,1,0,0,rectangle,3,1,1,0,0,0,6,"[251,175,322,306,236,109,312,160,126,25,128,80,132,292,40,145,216,92,187,136]",3,1,1,0,0,0,70,70,100,1,,,,,,,,,,,,,,,,,,,,,,,
,,,,,,,,,,,,,,,,,,,,,,,,,,,,,,,,,,,,,,,,,,,589cc7bd8bf22a00015b7b30,5fe1920ce66d7fc125cbc35f,2020-12-22_00h31.46.743,FlowerSimilarity_Experiment,2020.1.2,Win32,60,5fe17d4a51f3a9c1a60f9869,,,,,,,,,,,,,,,,,,,7,FF,,4,2.888,,,,,,,,,,,,,,,,,,,,,,,,,,,,,,,,,,27,-99,1,0,0,response3disk,5,72,-7,-1,1,0,0,rectangle,-7,-1,1,0,0,0,2,"[251,175,322,306,236,109,312,160,126,25,128,80,132,292,40,145,216,92,187,136]",-7,-1,1,0,0,0,71,71,156,1,,,,,,,,,,,,,,,,,,,,,,,
,,,,,,,,,,,,,,,,,,,,,,,,,,,,,,,,,,,,,,,,,,,589cc7bd8bf22a00015b7b30,5fe1920ce66d7fc125cbc35f,2020-12-22_00h31.46.743,FlowerSimilarity_Experiment,2020.1.2,Win32,60,5fe17d4a51f3a9c1a60f9869,,,,,,,,,,,,,,,,,,,3,FF,,6,2.16,,,,,,,,,,,,,,,,,,,,,,,,,,,,,,,,,,46,36,1,0,0,response1disk,6,73,7,-5,1,0,0,rectangle,7,-5,1,0,0,0,0,"[251,175,322,306,236,109,312,160,126,25,128,80,132,292,40,145,216,92,187,136]",7,-5,1,0,0,0,72,72,95,1,,,,,,,,,,,,,,,,,,,,,,,
,,,,,,,,,,,,,,,,,,,,,,,,,,,,,,,,,,,,,,,,,,,589cc7bd8bf22a00015b7b30,5fe1920ce66d7fc125cbc35f,2020-12-22_00h31.46.743,FlowerSimilarity_Experiment,2020.1.2,Win32,60,5fe17d4a51f3a9c1a60f9869,,,,,,,,,,,,,,,,,,,3,FF,,7,3.391,,,,,,,,,,,,,,,,,,,,,,,,,,,,,,,,,,34,69,1,0,0,response1disk,8,74,-2,3,1,0,0,rectangle,-2,3,1,0,0,0,4,"[251,175,322,306,236,109,312,160,126,25,128,80,132,292,40,145,216,92,187,136]",-2,3,1,0,0,0,73,73,44,1,,,,,,,,,,,,,,,,,,,,,,,
,,,,,,,,,,,,,,,,,,,,,,,,,,,,,,,,,,,,,,,,,,,589cc7bd8bf22a00015b7b30,5fe1920ce66d7fc125cbc35f,2020-12-22_00h31.46.743,FlowerSimilarity_Experiment,2020.1.2,Win32,60,5fe17d4a51f3a9c1a60f9869,,,,,,,,,,,,,,,,,,,7,FF,,6,2.749,,,,,,,,,,,,,,,,,,,,,,,,,,,,,,,,,,71,66,1,0,0,response1disk,9,75,6,-4,1,0,0,rectangle,6,-4,1,0,0,0,1,"[251,175,322,306,236,109,312,160,126,25,128,80,132,292,40,145,216,92,187,136]",6,-4,1,0,0,0,74,74,155,1,,,,,,,,,,,,,,,,,,,,,,,
,,,,,,,,,,,,,,,,,,,,,,,,,,,,,,,,,,,,,,,,,,,589cc7bd8bf22a00015b7b30,5fe1920ce66d7fc125cbc35f,2020-12-22_00h31.46.743,FlowerSimilarity_Experiment,2020.1.2,Win32,60,5fe17d4a51f3a9c1a60f9869,,,,,,,,,,,,,,,,,,,6,PF,,6,3.53,,,,,,,,,,,,,,,,,,,,,,,,,,,,,,,,,,69,32,1,0,0,response1disk,5,76,10,-5,1,0,0,rectangle,10,-5,1,0,0,0,1,"[251,175,322,306,236,109,312,160,126,25,128,80,132,292,40,145,216,92,187,136]",10,-5,1,0,0,0,75,75,59,1,,,,,,,,,,,,,,,,,,,,,,,
,,,,,,,,,,,,,,,,,,,,,,,,,,,,,,,,,,,,,,,,,,,589cc7bd8bf22a00015b7b30,5fe1920ce66d7fc125cbc35f,2020-12-22_00h31.46.743,FlowerSimilarity_Experiment,2020.1.2,Win32,60,5fe17d4a51f3a9c1a60f9869,,,,,,,,,,,,,,,,,,,3,FF,,0,1.697,,,,,,,,,,,,,,,,,,,,,,,,,,,,,,,,,,-28,76,1,0,0,response7disk,7,77,0,4,1,0,0,rectangle,0,4,1,0,0,0,3,"[251,175,322,306,236,109,312,160,126,25,128,80,132,292,40,145,216,92,187,136]",0,4,1,0,0,0,76,76,118,1,,,,,,,,,,,,,,,,,,,,,,,
,,,,,,,,,,,,,,,,,,,,,,,,,,,,,,,,,,,,,,,,,,,589cc7bd8bf22a00015b7b30,5fe1920ce66d7fc125cbc35f,2020-12-22_00h31.46.743,FlowerSimilarity_Experiment,2020.1.2,Win32,60,5fe17d4a51f3a9c1a60f9869,,,,,,,,,,,,,,,,,,,4,FF,,3,2.309,,,,,,,,,,,,,,,,,,,,,,,,,,,,,,,,,,-37,-72,1,0,0,response5disk,7,78,-7,-3,1,0,0,rectangle,-7,-3,1,0,0,0,4,"[251,175,322,306,236,109,312,160,126,25,128,80,132,292,40,145,216,92,187,136]",-7,-3,1,0,0,0,77,77,87,1,,,,,,,,,,,,,,,,,,,,,,,
,,,,,,,,,,,,,,,,,,,,,,,,,,,,,,,,,,,,,,,,,,,589cc7bd8bf22a00015b7b30,5fe1920ce66d7fc125cbc35f,2020-12-22_00h31.46.743,FlowerSimilarity_Experiment,2020.1.2,Win32,60,5fe17d4a51f3a9c1a60f9869,,,,,,,,,,,,,,,,,,,8,PF,,0,1.566,,,,,,,,,,,,,,,,,,,,,,,,,,,,,,,,,,-37,84,1,0,0,response7disk,8,79,-5,7,1,0,0,rectangle,-5,7,1,0,0,0,5,"[251,175,322,306,236,109,312,160,126,25,128,80,132,292,40,145,216,92,187,136]",-5,7,1,0,0,0,78,78,153,1,,,,,,,,,,,,,,,,,,,,,,,
,,,,,,,,,,,,,,,,,,,,,,,,,,,,,,,,,,,,,,,,,,,589cc7bd8bf22a00015b7b30,5fe1920ce66d7fc125cbc35f,2020-12-22_00h31.46.743,FlowerSimilarity_Experiment,2020.1.2,Win32,60,5fe17d4a51f3a9c1a60f9869,,,,,,,,,,,,,,,,,,,1,FF,,5,2.588,,,,,,,,,,,,,,,,,,,,,,,,,,,,,,,,,,69,-32,1,0,0,response3disk,2,80,4,-1,1,0,0,rectangle,25,-70,1,0,0,4,4,"[251,175,322,306,236,109,312,160,126,25,128,80,132,292,40,145,216,92,187,136]",-2,-3,1,0,0,0,79,79,2,1,response3disk_3,rectangle,,,,,,,,,,,,,,,,,,,,,
,,,,,,,,,,,,,,,,,,,,,,,,,,,,,,,,,,,,,,,,,,,589cc7bd8bf22a00015b7b30,5fe1920ce66d7fc125cbc35f,2020-12-22_00h31.46.743,FlowerSimilarity_Experiment,2020.1.2,Win32,60,5fe17d4a51f3a9c1a60f9869,,,,,,,,,,,,,,,,,,,3,PF,,4,2.95,,,,,,,,,,,,,,,,,,,,,,,,,,,,,,,,,,30,-95,1,0,0,response3disk,2,81,-6,-7,1,0,0,rectangle,-6,-7,1,0,0,4,7,"[251,175,322,306,236,109,312,160,126,25,128,80,132,292,40,145,216,92,187,136]",-6,-7,1,0,0,0,80,80,36,1,,,,,,,,,,,,,,,,,,,,,,,
,,,,,,,,,,,,,,,,,,,,,,,,,,,,,,,,,,,,,,,,,,,589cc7bd8bf22a00015b7b30,5fe1920ce66d7fc125cbc35f,2020-12-22_00h31.46.743,FlowerSimilarity_Experiment,2020.1.2,Win32,60,5fe17d4a51f3a9c1a60f9869,,,,,,,,,,,,,,,,,,,5,FF,,6,2.308,,,,,,,,,,,,,,,,,,,,,,,,,,,,,,,,,,66,46,1,0,0,response1disk,6,82,8,0,1,0,0,rectangle,8,0,1,0,0,4,3,"[251,175,322,306,236,109,312,160,126,25,128,80,132,292,40,145,216,92,187,136]",8,0,1,0,0,0,81,81,12,1,,,,,,,,,,,,,,,,,,,,,,,
,,,,,,,,,,,,,,,,,,,,,,,,,,,,,,,,,,,,,,,,,,,589cc7bd8bf22a00015b7b30,5fe1920ce66d7fc125cbc35f,2020-12-22_00h31.46.743,FlowerSimilarity_Experiment,2020.1.2,Win32,60,5fe17d4a51f3a9c1a60f9869,,,,,,,,,,,,,,,,,,,3,PF,,7,2.127,,,,,,,,,,,,,,,,,,,,,,,,,,,,,,,,,,34,70,1,0,0,response1disk,6,83,-2,11,1,0,0,rectangle,-2,11,1,0,0,4,7,"[251,175,322,306,236,109,312,160,126,25,128,80,132,292,40,145,216,92,187,136]",-2,11,1,0,0,0,82,82,47,1,,,,,,,,,,,,,,,,,,,,,,,
,,,,,,,,,,,,,,,,,,,,,,,,,,,,,,,,,,,,,,,,,,,589cc7bd8bf22a00015b7b30,5fe1920ce66d7fc125cbc35f,2020-12-22_00h31.46.743,FlowerSimilarity_Experiment,2020.1.2,Win32,60,5fe17d4a51f3a9c1a60f9869,,,,,,,,,,,,,,,,,,,8,FF,,3,3.411,,,,,,,,,,,,,,,,,,,,,,,,,,,,,,,,,,-27,-80,1,0,0,response5disk,2,84,2,-2,1,0,0,rectangle,2,-2,1,0,0,4,6,"[251,175,322,306,236,109,312,160,126,25,128,80,132,292,40,145,216,92,187,136]",2,-2,1,0,0,0,83,83,22,1,,,,,,,,,,,,,,,,,,,,,,,
,,,,,,,,,,,,,,,,,,,,,,,,,,,,,,,,,,,,,,,,,,,589cc7bd8bf22a00015b7b30,5fe1920ce66d7fc125cbc35f,2020-12-22_00h31.46.743,FlowerSimilarity_Experiment,2020.1.2,Win32,60,5fe17d4a51f3a9c1a60f9869,,,,,,,,,,,,,,,,,,,4,FF,,5,2.891,,,,,,,,,,,,,,,,,,,,,,,,,,,,,,,,,,76,-50,1,0,0,response3disk,1,85,17,-11,1,0,0,rectangle,17,-11,1,0,0,4,7,"[251,175,322,306,236,109,312,160,126,25,128,80,132,292,40,145,216,92,187,136]",17,-11,1,0,0,0,84,84,102,1,,,,,,,,,,,,,,,,,,,,,,,
,,,,,,,,,,,,,,,,,,,,,,,,,,,,,,,,,,,,,,,,,,,589cc7bd8bf22a00015b7b30,5fe1920ce66d7fc125cbc35f,2020-12-22_00h31.46.743,FlowerSimilarity_Experiment,2020.1.2,Win32,60,5fe17d4a51f3a9c1a60f9869,,,,,,,,,,,,,,,,,,,6,PF,,6,3.812,,,,,,,,,,,,,,,,,,,,,,,,,,,,,,,,,,73,34,1,0,0,response1disk,8,86,-3,-12,1,0,0,rectangle,-3,-12,1,0,0,4,3,"[251,175,322,306,236,109,312,160,126,25,128,80,132,292,40,145,216,92,187,136]",-3,-12,1,0,0,0,85,85,64,1,,,,,,,,,,,,,,,,,,,,,,,
,,,,,,,,,,,,,,,,,,,,,,,,,,,,,,,,,,,,,,,,,,,589cc7bd8bf22a00015b7b30,5fe1920ce66d7fc125cbc35f,2020-12-22_00h31.46.743,FlowerSimilarity_Experiment,2020.1.2,Win32,60,5fe17d4a51f3a9c1a60f9869,,,,,,,,,,,,,,,,,,,8,PF,,3,2.668,,,,,,,,,,,,,,,,,,,,,,,,,,,,,,,,,,-34,-77,1,0,0,response5disk,5,87,5,7,1,0,0,rectangle,5,7,1,0,0,4,4,"[251,175,322,306,236,109,312,160,126,25,128,80,132,292,40,145,216,92,187,136]",5,7,1,0,0,0,86,86,98,1,,,,,,,,,,,,,,,,,,,,,,,
,,,,,,,,,,,,,,,,,,,,,,,,,,,,,,,,,,,,,,,,,,,589cc7bd8bf22a00015b7b30,5fe1920ce66d7fc125cbc35f,2020-12-22_00h31.46.743,FlowerSimilarity_Experiment,2020.1.2,Win32,60,5fe17d4a51f3a9c1a60f9869,,,,,,,,,,,,,,,,,,,9,PF,,3,2.294,,,,,,,,,,,,,,,,,,,,,,,,,,,,,,,,,,-42,-84,1,0,0,response5disk,6,88,-1,5,1,0,0,rectangle,-1,5,1,0,0,4,1,"[251,175,322,306,236,109,312,160,126,25,128,80,132,292,40,145,216,92,187,136]",-1,5,1,0,0,0,87,87,148,1,,,,,,,,,,,,,,,,,,,,,,,
,,,,,,,,,,,,,,,,,,,,,,,,,,,,,,,,,,,,,,,,,,,589cc7bd8bf22a00015b7b30,5fe1920ce66d7fc125cbc35f,2020-12-22_00h31.46.743,FlowerSimilarity_Experiment,2020.1.2,Win32,60,5fe17d4a51f3a9c1a60f9869,,,,,,,,,,,,,,,,,,,2,PF,,5,2.087,,,,,,,,,,,,,,,,,,,,,,,,,,,,,,,,,,71,-20,1,0,0,response3disk,9,89,7,-8,1,0,0,rectangle,7,-8,1,0,0,4,6,"[251,175,322,306,236,109,312,160,126,25,128,80,132,292,40,145,216,92,187,136]",7,-8,1,0,0,0,88,88,39,1,,,,,,,,,,,,,,,,,,,,,,,
,,,,,,,,,,,,,,,,,,,,,,,,,,,,,,,,,,,,,,,,,,,589cc7bd8bf22a00015b7b30,5fe1920ce66d7fc125cbc35f,2020-12-22_00h31.46.743,FlowerSimilarity_Experiment,2020.1.2,Win32,60,5fe17d4a51f3a9c1a60f9869,,,,,,,,,,,,,,,,,,,1,FF,,7,3.31,,,,,,,,,,,,,,,,,,,,,,,,,,,,,,,,,,57,95,1,0,0,response1disk,4,90,-14,1,1,0,0,rectangle,-14,1,1,0,0,4,2,"[251,175,322,306,236,109,312,160,126,25,128,80,132,292,40,145,216,92,187,136]",-14,1,1,0,0,0,89,89,135,1,,,,,,,,,,,,,,,,,,,,,,,
,,,,,,,,,,,,,,,,,,,,,,,,,,,,,,,,,,,,,,,,,,,589cc7bd8bf22a00015b7b30,5fe1920ce66d7fc125cbc35f,2020-12-22_00h31.46.743,FlowerSimilarity_Experiment,2020.1.2,Win32,60,5fe17d4a51f3a9c1a60f9869,,,,,,,,,,,,,,,,,,,9,PF,,6,3.27,,,,,,,,,,,,,,,,,,,,,,,,,,,,,,,,,,69,47,1,0,0,response1disk,3,91,14,2,1,0,0,rectangle,14,2,1,0,0,4,1,"[251,175,322,306,236,109,312,160,126,25,128,80,132,292,40,145,216,92,187,136]",14,2,1,0,0,0,90,90,119,1,,,,,,,,,,,,,,,,,,,,,,,
,,,,,,,,,,,,,,,,,,,,,,,,,,,,,,,,,,,,,,,,,,,589cc7bd8bf22a00015b7b30,5fe1920ce66d7fc125cbc35f,2020-12-22_00h31.46.743,FlowerSimilarity_Experiment,2020.1.2,Win32,60,5fe17d4a51f3a9c1a60f9869,,,,,,,,,,,,,,,,,,,2,FF,,6,3.188,,,,,,,,,,,,,,,,,,,,,,,,,,,,,,,,,,97,56,1,0,0,response1disk,7,92,7,4,1,0,0,rectangle,-67,-26,1,0,0,4,2,"[251,175,322,306,236,109,312,160,126,25,128,80,132,292,40,145,216,92,187,136]",-9,6,1,0,0,0,91,91,63,1,response5disk_3,rectangle,,,,,,,,,,,,,,,,,,,,,
,,,,,,,,,,,,,,,,,,,,,,,,,,,,,,,,,,,,,,,,,,,589cc7bd8bf22a00015b7b30,5fe1920ce66d7fc125cbc35f,2020-12-22_00h31.46.743,FlowerSimilarity_Experiment,2020.1.2,Win32,60,5fe17d4a51f3a9c1a60f9869,,,,,,,,,,,,,,,,,,,3,PF,,0,2.006,,,,,,,,,,,,,,,,,,,,,,,,,,,,,,,,,,-24,83,1,0,0,response7disk,3,93,-4,1,1,0,0,rectangle,-4,1,1,0,0,4,0,"[251,175,322,306,236,109,312,160,126,25,128,80,132,292,40,145,216,92,187,136]",-4,1,1,0,0,0,92,92,4,1,,,,,,,,,,,,,,,,,,,,,,,
,,,,,,,,,,,,,,,,,,,,,,,,,,,,,,,,,,,,,,,,,,,589cc7bd8bf22a00015b7b30,5fe1920ce66d7fc125cbc35f,2020-12-22_00h31.46.743,FlowerSimilarity_Experiment,2020.1.2,Win32,60,5fe17d4a51f3a9c1a60f9869,,,,,,,,,,,,,,,,,,,6,FF,,0,1.545,,,,,,,,,,,,,,,,,,,,,,,,,,,,,,,,,,-24,77,1,0,0,response7disk,6,94,-8,3,1,0,0,rectangle,-8,3,1,0,0,4,3,"[251,175,322,306,236,109,312,160,126,25,128,80,132,292,40,145,216,92,187,136]",-8,3,1,0,0,0,93,93,91,1,,,,,,,,,,,,,,,,,,,,,,,
,,,,,,,,,,,,,,,,,,,,,,,,,,,,,,,,,,,,,,,,,,,589cc7bd8bf22a00015b7b30,5fe1920ce66d7fc125cbc35f,2020-12-22_00h31.46.743,FlowerSimilarity_Experiment,2020.1.2,Win32,60,5fe17d4a51f3a9c1a60f9869,,,,,,,,,,,,,,,,,,,7,PF,,5,3.094,,,,,,,,,,,,,,,,,,,,,,,,,,,,,,,,,,56,-35,1,0,0,response3disk,5,95,7,0,1,0,0,rectangle,7,0,1,0,0,4,6,"[251,175,322,306,236,109,312,160,126,25,128,80,132,292,40,145,216,92,187,136]",7,0,1,0,0,0,94,94,92,1,,,,,,,,,,,,,,,,,,,,,,,
,,,,,,,,,,,,,,,,,,,,,,,,,,,,,,,,,,,,,,,,,,,589cc7bd8bf22a00015b7b30,5fe1920ce66d7fc125cbc35f,2020-12-22_00h31.46.743,FlowerSimilarity_Experiment,2020.1.2,Win32,60,5fe17d4a51f3a9c1a60f9869,,,,,,,,,,,,,,,,,,,7,PF,,6,3.843,,,,,,,,,,,,,,,,,,,,,,,,,,,,,,,,,,76,29,1,0,0,response1disk,9,96,6,6,1,0,0,rectangle,6,6,1,0,0,4,5,"[251,175,322,306,236,109,312,160,126,25,128,80,132,292,40,145,216,92,187,136]",6,6,1,0,0,0,95,95,10,1,,,,,,,,,,,,,,,,,,,,,,,
,,,,,,,,,,,,,,,,,,,,,,,,,,,,,,,,,,,,,,,,,,,589cc7bd8bf22a00015b7b30,5fe1920ce66d7fc125cbc35f,2020-12-22_00h31.46.743,FlowerSimilarity_Experiment,2020.1.2,Win32,60,5fe17d4a51f3a9c1a60f9869,,,,,,,,,,,,,,,,,,,1,FF,,5,2.69,,,,,,,,,,,,,,,,,,,,,,,,,,,,,,,,,,62,-30,1,0,0,response3disk,7,97,9,1,1,0,0,rectangle,9,1,1,0,0,4,0,"[251,175,322,306,236,109,312,160,126,25,128,80,132,292,40,145,216,92,187,136]",9,1,1,0,0,0,96,96,137,1,,,,,,,,,,,,,,,,,,,,,,,
,,,,,,,,,,,,,,,,,,,,,,,,,,,,,,,,,,,,,,,,,,,589cc7bd8bf22a00015b7b30,5fe1920ce66d7fc125cbc35f,2020-12-22_00h31.46.743,FlowerSimilarity_Experiment,2020.1.2,Win32,60,5fe17d4a51f3a9c1a60f9869,,,,,,,,,,,,,,,,,,,8,PF,,6,2.127,,,,,,,,,,,,,,,,,,,,,,,,,,,,,,,,,,72,32,1,0,0,response1disk,6,98,1,-2,1,0,0,rectangle,1,-2,1,0,0,4,3,"[251,175,322,306,236,109,312,160,126,25,128,80,132,292,40,145,216,92,187,136]",1,-2,1,0,0,0,97,97,161,1,,,,,,,,,,,,,,,,,,,,,,,
,,,,,,,,,,,,,,,,,,,,,,,,,,,,,,,,,,,,,,,,,,,589cc7bd8bf22a00015b7b30,5fe1920ce66d7fc125cbc35f,2020-12-22_00h31.46.743,FlowerSimilarity_Experiment,2020.1.2,Win32,60,5fe17d4a51f3a9c1a60f9869,,,,,,,,,,,,,,,,,,,9,FF,,6,2.909,,,,,,,,,,,,,,,,,,,,,,,,,,,,,,,,,,104,27,1,0,0,response1disk,8,99,12,-6,1,0,0,rectangle,12,-6,1,0,0,4,4,"[251,175,322,306,236,109,312,160,126,25,128,80,132,292,40,145,216,92,187,136]",12,-6,1,0,0,0,98,98,6,1,,,,,,,,,,,,,,,,,,,,,,,
,,,,,,,,,,,,,,,,,,,,,,,,,,,,,,,,,,,,,,,,,,,589cc7bd8bf22a00015b7b30,5fe1920ce66d7fc125cbc35f,2020-12-22_00h31.46.743,FlowerSimilarity_Experiment,2020.1.2,Win32,60,5fe17d4a51f3a9c1a60f9869,,,,,,,,,,,,,,,,,,,5,PF,,6,2.33,,,,,,,,,,,,,,,,,,,,,,,,,,,,,,,,,,56,26,1,0,0,response1disk,9,100,-5,-7,1,0,0,rectangle,-5,-7,1,0,0,4,5,"[251,175,322,306,236,109,312,160,126,25,128,80,132,292,40,145,216,92,187,136]",-5,-7,1,0,0,0,99,99,136,1,,,,,,,,,,,,,,,,,,,,,,,
,,,,,,,,,,,,,,,,,,,,,,,,,,,,,,,,,,,,,,,,,,,589cc7bd8bf22a00015b7b30,5fe1920ce66d7fc125cbc35f,2020-12-22_00h31.46.743,FlowerSimilarity_Experiment,2020.1.2,Win32,60,5fe17d4a51f3a9c1a60f9869,,,,,,,,,,,,,,,,,,,1,PF,,6,3.407,,,,,,,,,,,,,,,,,,,,,,,,,,,,,,,,,,60,32,1,0,0,response1disk,2,101,-7,2,1,0,0,rectangle,-7,2,1,0,0,4,6,"[251,175,322,306,236,109,312,160,126,25,128,80,132,292,40,145,216,92,187,136]",-7,2,1,0,0,0,100,100,24,1,,,,,,,,,,,,,,,,,,,,,,,
,,,,,,,,,,,,,,,,,,,,,,,,,,,,,,,,,,,,,,,,,,,589cc7bd8bf22a00015b7b30,5fe1920ce66d7fc125cbc35f,2020-12-22_00h31.46.743,FlowerSimilarity_Experiment,2020.1.2,Win32,60,5fe17d4a51f3a9c1a60f9869,,,,,,,,,,,,,,,,,,,1,PF,,5,2.971,,,,,,,,,,,,,,,,,,,,,,,,,,,,,,,,,,70,-17,1,0,0,response3disk,5,102,11,-4,1,0,0,rectangle,11,-4,1,0,0,4,5,"[251,175,322,306,236,109,312,160,126,25,128,80,132,292,40,145,216,92,187,136]",11,-4,1,0,0,0,101,101,28,1,,,,,,,,,,,,,,,,,,,,,,,
,,,,,,,,,,,,,,,,,,,,,,,,,,,,,,,,,,,,,,,,,,,589cc7bd8bf22a00015b7b30,5fe1920ce66d7fc125cbc35f,2020-12-22_00h31.46.743,FlowerSimilarity_Experiment,2020.1.2,Win32,60,5fe17d4a51f3a9c1a60f9869,,,,,,,,,,,,,,,,,,,7,PF,,3,4.301,,,,,,,,,,,,,,,,,,,,,,,,,,,,,,,,,,-39,-91,1,0,0,response5disk,4,103,0,-2,1,0,0,rectangle,0,-2,1,0,0,4,6,"[251,175,322,306,236,109,312,160,126,25,128,80,132,292,40,145,216,92,187,136]",0,-2,1,0,0,0,102,102,43,1,,,,,,,,,,,,,,,,,,,,,,,
,,,,,,,,,,,,,,,,,,,,,,,,,,,,,,,,,,,,,,,,,,,589cc7bd8bf22a00015b7b30,5fe1920ce66d7fc125cbc35f,2020-12-22_00h31.46.743,FlowerSimilarity_Experiment,2020.1.2,Win32,60,5fe17d4a51f3a9c1a60f9869,,,,,,,,,,,,,,,,,,,5,FF,,4,2.729,,,,,,,,,,,,,,,,,,,,,,,,,,,,,,,,,,51,-95,1,0,0,response3disk,8,104,3,-9,1,0,0,rectangle,3,-9,1,0,0,4,6,"[251,175,322,306,236,109,312,160,126,25,128,80,132,292,40,145,216,92,187,136]",3,-9,1,0,0,0,103,103,16,1,,,,,,,,,,,,,,,,,,,,,,,
,,,,,,,,,,,,,,,,,,,,,,,,,,,,,,,,,,,,,,,,,,,589cc7bd8bf22a00015b7b30,5fe1920ce66d7fc125cbc35f,2020-12-22_00h31.46.743,FlowerSimilarity_Experiment,2020.1.2,Win32,60,5fe17d4a51f3a9c1a60f9869,,,,,,,,,,,,,,,,,,,3,PF,,7,2.69,,,,,,,,,,,,,,,,,,,,,,,,,,,,,,,,,,38,70,1,0,0,response1disk,9,105,-14,-8,1,0,0,rectangle,-14,-8,1,0,0,4,4,"[251,175,322,306,236,109,312,160,126,25,128,80,132,292,40,145,216,92,187,136]",-14,-8,1,0,0,0,104,104,79,1,,,,,,,,,,,,,,,,,,,,,,,
,,,,,,,,,,,,,,,,,,,,,,,,,,,,,,,,,,,,,,,,,,,589cc7bd8bf22a00015b7b30,5fe1920ce66d7fc125cbc35f,2020-12-22_00h31.46.743,FlowerSimilarity_Experiment,2020.1.2,Win32,60,5fe17d4a51f3a9c1a60f9869,,,,,,,,,,,,,,,,,,,5,FF,,4,3.691,,,,,,,,,,,,,,,,,,,,,,,,,,,,,,,,,,47,-74,1,0,0,response3disk,3,106,2,-3,1,0,0,rectangle,2,-3,1,0,0,4,1,"[251,175,322,306,236,109,312,160,126,25,128,80,132,292,40,145,216,92,187,136]",2,-3,1,0,0,0,105,105,25,1,,,,,,,,,,,,,,,,,,,,,,,
,,,,,,,,,,,,,,,,,,,,,,,,,,,,,,,,,,,,,,,,,,,589cc7bd8bf22a00015b7b30,5fe1920ce66d7fc125cbc35f,2020-12-22_00h31.46.743,FlowerSimilarity_Experiment,2020.1.2,Win32,60,5fe17d4a51f3a9c1a60f9869,,,,,,,,,,,,,,,,,,,4,PF,,6,2.329,,,,,,,,,,,,,,,,,,,,,,,,,,,,,,,,,,56,41,1,0,0,response1disk,5,107,11,2,1,0,0,rectangle,11,2,1,0,0,4,5,"[251,175,322,306,236,109,312,160,126,25,128,80,132,292,40,145,216,92,187,136]",11,2,1,0,0,0,106,106,49,1,,,,,,,,,,,,,,,,,,,,,,,
,,,,,,,,,,,,,,,,,,,,,,,,,,,,,,,,,,,,,,,,,,,589cc7bd8bf22a00015b7b30,5fe1920ce66d7fc125cbc35f,2020-12-22_00h31.46.743,FlowerSimilarity_Experiment,2020.1.2,Win32,60,5fe17d4a51f3a9c1a60f9869,,,,,,,,,,,,,,,,,,,1,FF,,6,2.486,,,,,,,,,,,,,,,,,,,,,,,,,,,,,,,,,,62,28,1,0,0,response1disk,3,108,5,-2,1,0,0,rectangle,5,-2,1,0,0,4,1,"[251,175,322,306,236,109,312,160,126,25,128,80,132,292,40,145,216,92,187,136]",5,-2,1,0,0,0,107,107,99,1,,,,,,,,,,,,,,,,,,,,,,,
,,,,,,,,,,,,,,,,,,,,,,,,,,,,,,,,,,,,,,,,,,,589cc7bd8bf22a00015b7b30,5fe1920ce66d7fc125cbc35f,2020-12-22_00h31.46.743,FlowerSimilarity_Experiment,2020.1.2,Win32,60,5fe17d4a51f3a9c1a60f9869,,,,,,,,,,,,,,,,,,,3,FF,,5,3.312,,,,,,,,,,,,,,,,,,,,,,,,,,,,,,,,,,64,-19,1,0,0,response3disk,2,109,-2,-4,1,0,0,rectangle,-28,-63,1,0,0,3,3,"[251,175,322,306,236,109,312,160,126,25,128,80,132,292,40,145,216,92,187,136]",2,6,1,0,0,0,108,108,93,1,response5disk_3,rectangle,,,,,,,,,,,,,,,,,,,,,
,,,,,,,,,,,,,,,,,,,,,,,,,,,,,,,,,,,,,,,,,,,589cc7bd8bf22a00015b7b30,5fe1920ce66d7fc125cbc35f,2020-12-22_00h31.46.743,FlowerSimilarity_Experiment,2020.1.2,Win32,60,5fe17d4a51f3a9c1a60f9869,,,,,,,,,,,,,,,,,,,4,PF,,7,2.048,,,,,,,,,,,,,,,,,,,,,,,,,,,,,,,,,,39,89,1,0,0,response1disk,6,110,-2,-3,1,0,0,rectangle,-2,-3,1,0,0,3,2,"[251,175,322,306,236,109,312,160,126,25,128,80,132,292,40,145,216,92,187,136]",-2,-3,1,0,0,0,109,109,120,1,,,,,,,,,,,,,,,,,,,,,,,
,,,,,,,,,,,,,,,,,,,,,,,,,,,,,,,,,,,,,,,,,,,589cc7bd8bf22a00015b7b30,5fe1920ce66d7fc125cbc35f,2020-12-22_00h31.46.743,FlowerSimilarity_Experiment,2020.1.2,Win32,60,5fe17d4a51f3a9c1a60f9869,,,,,,,,,,,,,,,,,,,9,PF,,2,2.147,,,,,,,,,,,,,,,,,,,,,,,,,,,,,,,,,,-77,-48,1,0,0,response5disk,1,111,-5,7,1,0,0,rectangle,-5,7,1,0,0,3,1,"[251,175,322,306,236,109,312,160,126,25,128,80,132,292,40,145,216,92,187,136]",-5,7,1,0,0,0,110,110,74,1,,,,,,,,,,,,,,,,,,,,,,,
,,,,,,,,,,,,,,,,,,,,,,,,,,,,,,,,,,,,,,,,,,,589cc7bd8bf22a00015b7b30,5fe1920ce66d7fc125cbc35f,2020-12-22_00h31.46.743,FlowerSimilarity_Experiment,2020.1.2,Win32,60,5fe17d4a51f3a9c1a60f9869,,,,,,,,,,,,,,,,,,,4,PF,,5,3.091,,,,,,,,,,,,,,,,,,,,,,,,,,,,,,,,,,53,-39,1,0,0,response3disk,1,112,-1,7,1,0,0,rectangle,-1,7,1,0,0,3,6,"[251,175,322,306,236,109,312,160,126,25,128,80,132,292,40,145,216,92,187,136]",-1,7,1,0,0,0,111,111,115,1,,,,,,,,,,,,,,,,,,,,,,,
,,,,,,,,,,,,,,,,,,,,,,,,,,,,,,,,,,,,,,,,,,,589cc7bd8bf22a00015b7b30,5fe1920ce66d7fc125cbc35f,2020-12-22_00h31.46.743,FlowerSimilarity_Experiment,2020.1.2,Win32,60,5fe17d4a51f3a9c1a60f9869,,,,,,,,,,,,,,,,,,,3,PF,,5,2.049,,,,,,,,,,,,,,,,,,,,,,,,,,,,,,,,,,65,-31,1,0,0,response3disk,1,113,17,2,1,0,0,rectangle,17,2,1,0,0,3,2,"[251,175,322,306,236,109,312,160,126,25,128,80,132,292,40,145,216,92,187,136]",17,2,1,0,0,0,112,112,96,1,,,,,,,,,,,,,,,,,,,,,,,
,,,,,,,,,,,,,,,,,,,,,,,,,,,,,,,,,,,,,,,,,,,589cc7bd8bf22a00015b7b30,5fe1920ce66d7fc125cbc35f,2020-12-22_00h31.46.743,FlowerSimilarity_Experiment,2020.1.2,Win32,60,5fe17d4a51f3a9c1a60f9869,,,,,,,,,,,,,,,,,,,3,PF,,2,2.628,,,,,,,,,,,,,,,,,,,,,,,,,,,,,,,,,,-49,-36,1,0,0,response5disk,4,114,-15,6,1,0,0,rectangle,-15,6,1,0,0,3,0,"[251,175,322,306,236,109,312,160,126,25,128,80,132,292,40,145,216,92,187,136]",-15,6,1,0,0,0,113,113,30,1,,,,,,,,,,,,,,,,,,,,,,,
,,,,,,,,,,,,,,,,,,,,,,,,,,,,,,,,,,,,,,,,,,,589cc7bd8bf22a00015b7b30,5fe1920ce66d7fc125cbc35f,2020-12-22_00h31.46.743,FlowerSimilarity_Experiment,2020.1.2,Win32,60,5fe17d4a51f3a9c1a60f9869,,,,,,,,,,,,,,,,,,,6,PF,,5,2.318,,,,,,,,,,,,,,,,,,,,,,,,,,,,,,,,,,60,-40,1,0,0,response3disk,2,115,-1,2,1,0,0,rectangle,-1,2,1,0,0,3,0,"[251,175,322,306,236,109,312,160,126,25,128,80,132,292,40,145,216,92,187,136]",-1,2,1,0,0,0,114,114,130,1,,,,,,,,,,,,,,,,,,,,,,,
,,,,,,,,,,,,,,,,,,,,,,,,,,,,,,,,,,,,,,,,,,,589cc7bd8bf22a00015b7b30,5fe1920ce66d7fc125cbc35f,2020-12-22_00h31.46.743,FlowerSimilarity_Experiment,2020.1.2,Win32,60,5fe17d4a51f3a9c1a60f9869,,,,,,,,,,,,,,,,,,,2,FF,,5,3.339,,,,,,,,,,,,,,,,,,,,,,,,,,,,,,,,,,74,-29,1,0,0,response3disk,9,116,-13,3,1,0,0,rectangle,-13,3,1,0,0,3,7,"[251,175,322,306,236,109,312,160,126,25,128,80,132,292,40,145,216,92,187,136]",-13,3,1,0,0,0,115,115,72,1,,,,,,,,,,,,,,,,,,,,,,,
,,,,,,,,,,,,,,,,,,,,,,,,,,,,,,,,,,,,,,,,,,,589cc7bd8bf22a00015b7b30,5fe1920ce66d7fc125cbc35f,2020-12-22_00h31.46.743,FlowerSimilarity_Experiment,2020.1.2,Win32,60,5fe17d4a51f3a9c1a60f9869,,,,,,,,,,,,,,,,,,,6,PF,,6,3.07,,,,,,,,,,,,,,,,,,,,,,,,,,,,,,,,,,91,36,1,0,0,response1disk,4,117,10,13,1,0,0,rectangle,10,13,1,0,0,3,6,"[251,175,322,306,236,109,312,160,126,25,128,80,132,292,40,145,216,92,187,136]",10,13,1,0,0,0,116,116,33,1,,,,,,,,,,,,,,,,,,,,,,,
,,,,,,,,,,,,,,,,,,,,,,,,,,,,,,,,,,,,,,,,,,,589cc7bd8bf22a00015b7b30,5fe1920ce66d7fc125cbc35f,2020-12-22_00h31.46.743,FlowerSimilarity_Experiment,2020.1.2,Win32,60,5fe17d4a51f3a9c1a60f9869,,,,,,,,,,,,,,,,,,,4,PF,,7,3.571,,,,,,,,,,,,,,,,,,,,,,,,,,,,,,,,,,34,102,1,0,0,response1disk,9,118,-7,-3,1,0,0,rectangle,-7,-3,1,0,0,3,6,"[251,175,322,306,236,109,312,160,126,25,128,80,132,292,40,145,216,92,187,136]",-7,-3,1,0,0,0,117,117,75,1,,,,,,,,,,,,,,,,,,,,,,,
,,,,,,,,,,,,,,,,,,,,,,,,,,,,,,,,,,,,,,,,,,,589cc7bd8bf22a00015b7b30,5fe1920ce66d7fc125cbc35f,2020-12-22_00h31.46.743,FlowerSimilarity_Experiment,2020.1.2,Win32,60,5fe17d4a51f3a9c1a60f9869,,,,,,,,,,,,,,,,,,,8,FF,,5,3.09,,,,,,,,,,,,,,,,,,,,,,,,,,,,,,,,,,62,-30,1,0,0,response3disk,3,119,11,-1,1,0,0,rectangle,11,-1,1,0,0,3,0,"[251,175,322,306,236,109,312,160,126,25,128,80,132,292,40,145,216,92,187,136]",11,-1,1,0,0,0,118,118,154,1,,,,,,,,,,,,,,,,,,,,,,,
,,,,,,,,,,,,,,,,,,,,,,,,,,,,,,,,,,,,,,,,,,,589cc7bd8bf22a00015b7b30,5fe1920ce66d7fc125cbc35f,2020-12-22_00h31.46.743,FlowerSimilarity_Experiment,2020.1.2,Win32,60,5fe17d4a51f3a9c1a60f9869,,,,,,,,,,,,,,,,,,,6,FF,,6,2.327,,,,,,,,,,,,,,,,,,,,,,,,,,,,,,,,,,61,27,1,0,0,response1disk,2,120,10,-4,1,0,0,rectangle,10,-4,1,0,0,3,6,"[251,175,322,306,236,109,312,160,126,25,128,80,132,292,40,145,216,92,187,136]",10,-4,1,0,0,0,119,119,112,1,,,,,,,,,,,,,,,,,,,,,,,
,,,,,,,,,,,,,,,,,,,,,,,,,,,,,,,,,,,,,,,,,,,589cc7bd8bf22a00015b7b30,5fe1920ce66d7fc125cbc35f,2020-12-22_00h31.46.743,FlowerSimilarity_Experiment,2020.1.2,Win32,60,5fe17d4a51f3a9c1a60f9869,,,,,,,,,,,,,,,,,,,8,PF,,5,3.37,,,,,,,,,,,,,,,,,,,,,,,,,,,,,,,,,,65,-17,1,0,0,response3disk,9,121,14,-8,1,0,0,rectangle,14,-8,1,0,0,3,7,"[251,175,322,306,236,109,312,160,126,25,128,80,132,292,40,145,216,92,187,136]",14,-8,1,0,0,0,120,120,42,1,,,,,,,,,,,,,,,,,,,,,,,
,,,,,,,,,,,,,,,,,,,,,,,,,,,,,,,,,,,,,,,,,,,589cc7bd8bf22a00015b7b30,5fe1920ce66d7fc125cbc35f,2020-12-22_00h31.46.743,FlowerSimilarity_Experiment,2020.1.2,Win32,60,5fe17d4a51f3a9c1a60f9869,,,,,,,,,,,,,,,,,,,1,FF,,0,1.565,,,,,,,,,,,,,,,,,,,,,,,,,,,,,,,,,,-29,83,1,0,0,response7disk,1,122,1,6,1,0,0,rectangle,1,6,1,0,0,3,5,"[251,175,322,306,236,109,312,160,126,25,128,80,132,292,40,145,216,92,187,136]",1,6,1,0,0,0,121,121,151,1,,,,,,,,,,,,,,,,,,,,,,,
,,,,,,,,,,,,,,,,,,,,,,,,,,,,,,,,,,,,,,,,,,,589cc7bd8bf22a00015b7b30,5fe1920ce66d7fc125cbc35f,2020-12-22_00h31.46.743,FlowerSimilarity_Experiment,2020.1.2,Win32,60,5fe17d4a51f3a9c1a60f9869,,,,,,,,,,,,,,,,,,,1,FF,,7,2.27,,,,,,,,,,,,,,,,,,,,,,,,,,,,,,,,,,39,89,1,0,0,response1disk,8,123,-12,2,1,0,0,rectangle,-12,2,1,0,0,3,1,"[251,175,322,306,236,109,312,160,126,25,128,80,132,292,40,145,216,92,187,136]",-12,2,1,0,0,0,122,122,27,1,,,,,,,,,,,,,,,,,,,,,,,
,,,,,,,,,,,,,,,,,,,,,,,,,,,,,,,,,,,,,,,,,,,589cc7bd8bf22a00015b7b30,5fe1920ce66d7fc125cbc35f,2020-12-22_00h31.46.743,FlowerSimilarity_Experiment,2020.1.2,Win32,60,5fe17d4a51f3a9c1a60f9869,,,,,,,,,,,,,,,,,,,9,FF,,7,2.851,,,,,,,,,,,,,,,,,,,,,,,,,,,,,,,,,,48,77,1,0,0,response1disk,4,124,3,8,1,0,0,rectangle,3,8,1,0,0,3,3,"[251,175,322,306,236,109,312,160,126,25,128,80,132,292,40,145,216,92,187,136]",3,8,1,0,0,0,123,123,60,1,,,,,,,,,,,,,,,,,,,,,,,
,,,,,,,,,,,,,,,,,,,,,,,,,,,,,,,,,,,,,,,,,,,589cc7bd8bf22a00015b7b30,5fe1920ce66d7fc125cbc35f,2020-12-22_00h31.46.743,FlowerSimilarity_Experiment,2020.1.2,Win32,60,5fe17d4a51f3a9c1a60f9869,,,,,,,,,,,,,,,,,,,7,PF,,6,2.79,,,,,,,,,,,,,,,,,,,,,,,,,,,,,,,,,,81,48,1,0,0,response1disk,8,125,8,-6,1,0,0,rectangle,8,-6,1,0,0,3,3,"[251,175,322,306,236,109,312,160,126,25,128,80,132,292,40,145,216,92,187,136]",8,-6,1,0,0,0,124,124,140,1,,,,,,,,,,,,,,,,,,,,,,,
,,,,,,,,,,,,,,,,,,,,,,,,,,,,,,,,,,,,,,,,,,,589cc7bd8bf22a00015b7b30,5fe1920ce66d7fc125cbc35f,2020-12-22_00h31.46.743,FlowerSimilarity_Experiment,2020.1.2,Win32,60,5fe17d4a51f3a9c1a60f9869,,,,,,,,,,,,,,,,,,,4,FF,,6,4.995,,,,,,,,,,,,,,,,,,,,,,,,,,,,,,,,,,83,42,1,0,0,response1disk,2,126,-3,-1,1,0,0,rectangle,-31,-67,1,0,0,3,3,"[251,175,322,306,236,109,312,160,126,25,128,80,132,292,40,145,216,92,187,136]",-6,-3,1,0,0,0,125,125,13,1,response5disk_3,rectangle,,,,,,,,,,,,,,,,,,,,,
,,,,,,,,,,,,,,,,,,,,,,,,,,,,,,,,,,,,,,,,,,,589cc7bd8bf22a00015b7b30,5fe1920ce66d7fc125cbc35f,2020-12-22_00h31.46.743,FlowerSimilarity_Experiment,2020.1.2,Win32,60,5fe17d4a51f3a9c1a60f9869,,,,,,,,,,,,,,,,,,,6,PF,,6,5.333,,,,,,,,,,,,,,,,,,,,,,,,,,,,,,,,,,76,30,1,0,0,response1disk,3,127,-3,5,1,0,0,rectangle,-3,5,1,0,0,3,1,"[251,175,322,306,236,109,312,160,126,25,128,80,132,292,40,145,216,92,187,136]",-3,5,1,0,0,0,126,126,26,1,,,,,,,,,,,,,,,,,,,,,,,
,,,,,,,,,,,,,,,,,,,,,,,,,,,,,,,,,,,,,,,,,,,589cc7bd8bf22a00015b7b30,5fe1920ce66d7fc125cbc35f,2020-12-22_00h31.46.743,FlowerSimilarity_Experiment,2020.1.2,Win32,60,5fe17d4a51f3a9c1a60f9869,,,,,,,,,,,,,,,,,,,4,FF,,7,1.888,,,,,,,,,,,,,,,,,,,,,,,,,,,,,,,,,,46,95,1,0,0,response1disk,5,128,-14,1,1,0,0,rectangle,-73,-42,1,0,0,3,2,"[251,175,322,306,236,109,312,160,126,25,128,80,132,292,40,145,216,92,187,136]",-9,-7,1,0,0,0,127,127,116,1,response5disk_3,rectangle,,,,,,,,,,,,,,,,,,,,,
,,,,,,,,,,,,,,,,,,,,,,,,,,,,,,,,,,,,,,,,,,,589cc7bd8bf22a00015b7b30,5fe1920ce66d7fc125cbc35f,2020-12-22_00h31.46.743,FlowerSimilarity_Experiment,2020.1.2,Win32,60,5fe17d4a51f3a9c1a60f9869,,,,,,,,,,,,,,,,,,,5,PF,,5,3.464,,,,,,,,,,,,,,,,,,,,,,,,,,,,,,,,,,70,-25,1,0,0,response3disk,1,129,11,0,1,0,0,rectangle,11,0,1,0,0,3,1,"[251,175,322,306,236,109,312,160,126,25,128,80,132,292,40,145,216,92,187,136]",11,0,1,0,0,0,128,128,159,1,,,,,,,,,,,,,,,,,,,,,,,
,,,,,,,,,,,,,,,,,,,,,,,,,,,,,,,,,,,,,,,,,,,589cc7bd8bf22a00015b7b30,5fe1920ce66d7fc125cbc35f,2020-12-22_00h31.46.743,FlowerSimilarity_Experiment,2020.1.2,Win32,60,5fe17d4a51f3a9c1a60f9869,,,,,,,,,,,,,,,,,,,6,FF,,3,2.892,,,,,,,,,,,,,,,,,,,,,,,,,,,,,,,,,,-15,-71,1,0,0,response5disk,1,130,-2,-13,1,0,0,rectangle,-2,-13,1,0,0,3,1,"[251,175,322,306,236,109,312,160,126,25,128,80,132,292,40,145,216,92,187,136]",-2,-13,1,0,0,0,129,129,5,1,,,,,,,,,,,,,,,,,,,,,,,
,,,,,,,,,,,,,,,,,,,,,,,,,,,,,,,,,,,,,,,,,,,589cc7bd8bf22a00015b7b30,5fe1920ce66d7fc125cbc35f,2020-12-22_00h31.46.743,FlowerSimilarity_Experiment,2020.1.2,Win32,60,5fe17d4a51f3a9c1a60f9869,,,,,,,,,,,,,,,,,,,7,FF,,2,2.369,,,,,,,,,,,,,,,,,,,,,,,,,,,,,,,,,,-62,-45,1,0,0,response5disk,4,131,-15,-8,1,0,0,rectangle,-15,-8,1,0,0,3,6,"[251,175,322,306,236,109,312,160,126,25,128,80,132,292,40,145,216,92,187,136]",-15,-8,1,0,0,0,130,130,158,1,,,,,,,,,,,,,,,,,,,,,,,
,,,,,,,,,,,,,,,,,,,,,,,,,,,,,,,,,,,,,,,,,,,589cc7bd8bf22a00015b7b30,5fe1920ce66d7fc125cbc35f,2020-12-22_00h31.46.743,FlowerSimilarity_Experiment,2020.1.2,Win32,60,5fe17d4a51f3a9c1a60f9869,,,,,,,,,,,,,,,,,,,7,FF,,1,2.186,,,,,,,,,,,,,,,,,,,,,,,,,,,,,,,,,,-78,59,1,0,0,response7disk,3,132,-9,8,1,0,0,rectangle,23,-73,1,0,0,4,4,"[251,175,322,306,236,109,312,160,126,25,128,80,132,292,40,145,216,92,187,136]",2,5,1,0,0,0,131,131,73,1,response3disk_3,rectangle,,,,,,,,,,,,,,,,,,,,,
,,,,,,,,,,,,,,,,,,,,,,,,,,,,,,,,,,,,,,,,,,,589cc7bd8bf22a00015b7b30,5fe1920ce66d7fc125cbc35f,2020-12-22_00h31.46.743,FlowerSimilarity_Experiment,2020.1.2,Win32,60,5fe17d4a51f3a9c1a60f9869,,,,,,,,,,,,,,,,,,,5,PF,,2,2.109,,,,,,,,,,,,,,,,,,,,,,,,,,,,,,,,,,-67,-41,1,0,0,response5disk,8,133,-17,-11,1,0,0,rectangle,-17,-11,1,0,0,4,2,"[251,175,322,306,236,109,312,160,126,25,128,80,132,292,40,145,216,92,187,136]",-17,-11,1,0,0,0,132,132,149,1,,,,,,,,,,,,,,,,,,,,,,,
,,,,,,,,,,,,,,,,,,,,,,,,,,,,,,,,,,,,,,,,,,,589cc7bd8bf22a00015b7b30,5fe1920ce66d7fc125cbc35f,2020-12-22_00h31.46.743,FlowerSimilarity_Experiment,2020.1.2,Win32,60,5fe17d4a51f3a9c1a60f9869,,,,,,,,,,,,,,,,,,,2,PF,,5,3.331,,,,,,,,,,,,,,,,,,,,,,,,,,,,,,,,,,59,-28,1,0,0,response3disk,1,134,12,-3,1,0,0,rectangle,12,-3,1,0,0,4,6,"[251,175,322,306,236,109,312,160,126,25,128,80,132,292,40,145,216,92,187,136]",12,-3,1,0,0,0,133,133,9,1,,,,,,,,,,,,,,,,,,,,,,,
,,,,,,,,,,,,,,,,,,,,,,,,,,,,,,,,,,,,,,,,,,,589cc7bd8bf22a00015b7b30,5fe1920ce66d7fc125cbc35f,2020-12-22_00h31.46.743,FlowerSimilarity_Experiment,2020.1.2,Win32,60,5fe17d4a51f3a9c1a60f9869,,,,,,,,,,,,,,,,,,,1,FF,,6,2.064,,,,,,,,,,,,,,,,,,,,,,,,,,,,,,,,,,62,25,1,0,0,response1disk,5,135,6,-8,1,0,0,rectangle,6,-8,1,0,0,4,6,"[251,175,322,306,236,109,312,160,126,25,128,80,132,292,40,145,216,92,187,136]",6,-8,1,0,0,0,134,134,82,1,,,,,,,,,,,,,,,,,,,,,,,
,,,,,,,,,,,,,,,,,,,,,,,,,,,,,,,,,,,,,,,,,,,589cc7bd8bf22a00015b7b30,5fe1920ce66d7fc125cbc35f,2020-12-22_00h31.46.743,FlowerSimilarity_Experiment,2020.1.2,Win32,60,5fe17d4a51f3a9c1a60f9869,,,,,,,,,,,,,,,,,,,5,FF,,6,1.889,,,,,,,,,,,,,,,,,,,,,,,,,,,,,,,,,,84,30,1,0,0,response1disk,1,136,-7,-3,1,0,0,rectangle,46,81,1,0,0,7,7,"[251,175,322,306,236,109,312,160,126,25,128,80,132,292,40,145,216,92,187,136]",-2,-1,1,0,0,0,135,135,131,1,response1disk_3,rectangle,,,,,,,,,,,,,,,,,,,,,
,,,,,,,,,,,,,,,,,,,,,,,,,,,,,,,,,,,,,,,,,,,589cc7bd8bf22a00015b7b30,5fe1920ce66d7fc125cbc35f,2020-12-22_00h31.46.743,FlowerSimilarity_Experiment,2020.1.2,Win32,60,5fe17d4a51f3a9c1a60f9869,,,,,,,,,,,,,,,,,,,1,PF,,6,2.532,,,,,,,,,,,,,,,,,,,,,,,,,,,,,,,,,,88,36,1,0,0,response1disk,3,137,15,-2,1,0,0,rectangle,15,-2,1,0,0,7,5,"[251,175,322,306,236,109,312,160,126,25,128,80,132,292,40,145,216,92,187,136]",15,-2,1,0,0,0,136,136,1,1,,,,,,,,,,,,,,,,,,,,,,,
,,,,,,,,,,,,,,,,,,,,,,,,,,,,,,,,,,,,,,,,,,,589cc7bd8bf22a00015b7b30,5fe1920ce66d7fc125cbc35f,2020-12-22_00h31.46.743,FlowerSimilarity_Experiment,2020.1.2,Win32,60,5fe17d4a51f3a9c1a60f9869,,,,,,,,,,,,,,,,,,,1,FF,,4,3.632,,,,,,,,,,,,,,,,,,,,,,,,,,,,,,,,,,19,-71,1,0,0,response3disk,6,138,0,-3,1,0,0,rectangle,0,-3,1,0,0,7,5,"[251,175,322,306,236,109,312,160,126,25,128,80,132,292,40,145,216,92,187,136]",0,-3,1,0,0,0,137,137,58,1,,,,,,,,,,,,,,,,,,,,,,,
,,,,,,,,,,,,,,,,,,,,,,,,,,,,,,,,,,,,,,,,,,,589cc7bd8bf22a00015b7b30,5fe1920ce66d7fc125cbc35f,2020-12-22_00h31.46.743,FlowerSimilarity_Experiment,2020.1.2,Win32,60,5fe17d4a51f3a9c1a60f9869,,,,,,,,,,,,,,,,,,,7,FF,,5,28.198,,,,,,,,,,,,,,,,,,,,,,,,,,,,,,,,,,75,-26,1,0,0,response3disk,2,139,2,11,1,0,0,rectangle,2,11,1,0,0,7,3,"[251,175,322,306,236,109,312,160,126,25,128,80,132,292,40,145,216,92,187,136]",2,11,1,0,0,0,138,138,138,1,,,,,,,,,,,,,,,,,,,,,,,
,,,,,,,,,,,,,,,,,,,,,,,,,,,,,,,,,,,,,,,,,,,589cc7bd8bf22a00015b7b30,5fe1920ce66d7fc125cbc35f,2020-12-22_00h31.46.743,FlowerSimilarity_Experiment,2020.1.2,Win32,60,5fe17d4a51f3a9c1a60f9869,,,,,,,,,,,,,,,,,,,2,PF,,6,2.328,,,,,,,,,,,,,,,,,,,,,,,,,,,,,,,,,,83,36,1,0,0,response1disk,6,140,12,1,1,0,0,rectangle,12,1,1,0,0,7,4,"[251,175,322,306,236,109,312,160,126,25,128,80,132,292,40,145,216,92,187,136]",12,1,1,0,0,0,139,139,113,1,,,,,,,,,,,,,,,,,,,,,,,
,,,,,,,,,,,,,,,,,,,,,,,,,,,,,,,,,,,,,,,,,,,589cc7bd8bf22a00015b7b30,5fe1920ce66d7fc125cbc35f,2020-12-22_00h31.46.743,FlowerSimilarity_Experiment,2020.1.2,Win32,60,5fe17d4a51f3a9c1a60f9869,,,,,,,,,,,,,,,,,,,2,PF,,0,1.568,,,,,,,,,,,,,,,,,,,,,,,,,,,,,,,,,,-41,100,1,0,0,response7disk,2,141,-5,1,1,0,0,rectangle,-5,1,1,0,0,7,3,"[251,175,322,306,236,109,312,160,126,25,128,80,132,292,40,145,216,92,187,136]",-5,1,1,0,0,0,140,140,14,1,,,,,,,,,,,,,,,,,,,,,,,
,,,,,,,,,,,,,,,,,,,,,,,,,,,,,,,,,,,,,,,,,,,589cc7bd8bf22a00015b7b30,5fe1920ce66d7fc125cbc35f,2020-12-22_00h31.46.743,FlowerSimilarity_Experiment,2020.1.2,Win32,60,5fe17d4a51f3a9c1a60f9869,,,,,,,,,,,,,,,,,,,8,FF,,1,1.866,,,,,,,,,,,,,,,,,,,,,,,,,,,,,,,,,,-67,29,1,0,0,response7disk,5,142,-3,-8,1,0,0,rectangle,-3,-8,1,0,0,7,7,"[251,175,322,306,236,109,312,160,126,25,128,80,132,292,40,145,216,92,187,136]",-3,-8,1,0,0,0,141,141,152,1,,,,,,,,,,,,,,,,,,,,,,,
,,,,,,,,,,,,,,,,,,,,,,,,,,,,,,,,,,,,,,,,,,,589cc7bd8bf22a00015b7b30,5fe1920ce66d7fc125cbc35f,2020-12-22_00h31.46.743,FlowerSimilarity_Experiment,2020.1.2,Win32,60,5fe17d4a51f3a9c1a60f9869,,,,,,,,,,,,,,,,,,,2,FF,,3,3.613,,,,,,,,,,,,,,,,,,,,,,,,,,,,,,,,,,-40,-72,1,0,0,response5disk,8,143,-3,-9,1,0,0,rectangle,-3,-9,1,0,0,7,5,"[251,175,322,306,236,109,312,160,126,25,128,80,132,292,40,145,216,92,187,136]",-3,-9,1,0,0,0,142,142,62,1,,,,,,,,,,,,,,,,,,,,,,,
,,,,,,,,,,,,,,,,,,,,,,,,,,,,,,,,,,,,,,,,,,,589cc7bd8bf22a00015b7b30,5fe1920ce66d7fc125cbc35f,2020-12-22_00h31.46.743,FlowerSimilarity_Experiment,2020.1.2,Win32,60,5fe17d4a51f3a9c1a60f9869,,,,,,,,,,,,,,,,,,,5,PF,,4,4.354,,,,,,,,,,,,,,,,,,,,,,,,,,,,,,,,,,43,-79,1,0,0,response3disk,3,144,2,0,1,0,0,rectangle,2,0,1,0,0,7,7,"[251,175,322,306,236,109,312,160,126,25,128,80,132,292,40,145,216,92,187,136]",2,0,1,0,0,0,143,143,109,1,,,,,,,,,,,,,,,,,,,,,,,
,,,,,,,,,,,,,,,,,,,,,,,,,,,,,,,,,,,,,,,,,,,589cc7bd8bf22a00015b7b30,5fe1920ce66d7fc125cbc35f,2020-12-22_00h31.46.743,FlowerSimilarity_Experiment,2020.1.2,Win32,60,5fe17d4a51f3a9c1a60f9869,,,,,,,,,,,,,,,,,,,7,PF,,1,3.052,,,,,,,,,,,,,,,,,,,,,,,,,,,,,,,,,,-76,54,1,0,0,response7disk,3,145,-12,-8,1,0,0,rectangle,47,92,1,0,0,7,7,"[251,175,322,306,236,109,312,160,126,25,128,80,132,292,40,145,216,92,187,136]",2,-5,1,0,0,0,144,144,81,1,response1disk_3,rectangle,,,,,,,,,,,,,,,,,,,,,
,,,,,,,,,,,,,,,,,,,,,,,,,,,,,,,,,,,,,,,,,,,589cc7bd8bf22a00015b7b30,5fe1920ce66d7fc125cbc35f,2020-12-22_00h31.46.743,FlowerSimilarity_Experiment,2020.1.2,Win32,60,5fe17d4a51f3a9c1a60f9869,,,,,,,,,,,,,,,,,,,3,FF,,4,2.411,,,,,,,,,,,,,,,,,,,,,,,,,,,,,,,,,,36,-77,1,0,0,response3disk,5,146,1,-9,1,0,0,rectangle,1,-9,1,0,0,7,1,"[251,175,322,306,236,109,312,160,126,25,128,80,132,292,40,145,216,92,187,136]",1,-9,1,0,0,0,145,145,101,1,,,,,,,,,,,,,,,,,,,,,,,
,,,,,,,,,,,,,,,,,,,,,,,,,,,,,,,,,,,,,,,,,,,589cc7bd8bf22a00015b7b30,5fe1920ce66d7fc125cbc35f,2020-12-22_00h31.46.743,FlowerSimilarity_Experiment,2020.1.2,Win32,60,5fe17d4a51f3a9c1a60f9869,,,,,,,,,,,,,,,,,,,6,PF,,7,2.972,,,,,,,,,,,,,,,,,,,,,,,,,,,,,,,,,,27,107,1,0,0,response1disk,7,147,3,10,1,0,0,rectangle,3,10,1,0,0,7,1,"[251,175,322,306,236,109,312,160,126,25,128,80,132,292,40,145,216,92,187,136]",3,10,1,0,0,0,146,146,50,1,,,,,,,,,,,,,,,,,,,,,,,
,,,,,,,,,,,,,,,,,,,,,,,,,,,,,,,,,,,,,,,,,,,589cc7bd8bf22a00015b7b30,5fe1920ce66d7fc125cbc35f,2020-12-22_00h31.46.743,FlowerSimilarity_Experiment,2020.1.2,Win32,60,5fe17d4a51f3a9c1a60f9869,,,,,,,,,,,,,,,,,,,9,PF,,0,1.606,,,,,,,,,,,,,,,,,,,,,,,,,,,,,,,,,,-38,91,1,0,0,response7disk,9,148,-3,9,1,0,0,rectangle,-3,9,1,0,0,7,6,"[251,175,322,306,236,109,312,160,126,25,128,80,132,292,40,145,216,92,187,136]",-3,9,1,0,0,0,147,147,106,1,,,,,,,,,,,,,,,,,,,,,,,
,,,,,,,,,,,,,,,,,,,,,,,,,,,,,,,,,,,,,,,,,,,589cc7bd8bf22a00015b7b30,5fe1920ce66d7fc125cbc35f,2020-12-22_00h31.46.743,FlowerSimilarity_Experiment,2020.1.2,Win32,60,5fe17d4a51f3a9c1a60f9869,,,,,,,,,,,,,,,,,,,5,FF,,0,1.485,,,,,,,,,,,,,,,,,,,,,,,,,,,,,,,,,,-24,71,1,0,0,response7disk,5,149,-2,7,1,0,0,rectangle,-2,7,1,0,0,7,2,"[251,175,322,306,236,109,312,160,126,25,128,80,132,292,40,145,216,92,187,136]",-2,7,1,0,0,0,148,148,19,1,,,,,,,,,,,,,,,,,,,,,,,
,,,,,,,,,,,,,,,,,,,,,,,,,,,,,,,,,,,,,,,,,,,589cc7bd8bf22a00015b7b30,5fe1920ce66d7fc125cbc35f,2020-12-22_00h31.46.743,FlowerSimilarity_Experiment,2020.1.2,Win32,60,5fe17d4a51f3a9c1a60f9869,,,,,,,,,,,,,,,,,,,3,FF,,7,2.429,,,,,,,,,,,,,,,,,,,,,,,,,,,,,,,,,,47,69,1,0,0,response1disk,1,150,-4,-4,1,0,0,rectangle,-4,-4,1,0,0,7,5,"[251,175,322,306,236,109,312,160,126,25,128,80,132,292,40,145,216,92,187,136]",-4,-4,1,0,0,0,149,149,125,1,,,,,,,,,,,,,,,,,,,,,,,
,,,,,,,,,,,,,,,,,,,,,,,,,,,,,,,,,,,,,,,,,,,589cc7bd8bf22a00015b7b30,5fe1920ce66d7fc125cbc35f,2020-12-22_00h31.46.743,FlowerSimilarity_Experiment,2020.1.2,Win32,60,5fe17d4a51f3a9c1a60f9869,,,,,,,,,,,,,,,,,,,2,FF,,3,5.496,,,,,,,,,,,,,,,,,,,,,,,,,,,,,,,,,,-19,-83,1,0,0,response5disk,4,151,-3,6,1,0,0,rectangle,-3,6,1,0,0,7,5,"[251,175,322,306,236,109,312,160,126,25,128,80,132,292,40,145,216,92,187,136]",-3,6,1,0,0,0,150,150,145,1,,,,,,,,,,,,,,,,,,,,,,,
,,,,,,,,,,,,,,,,,,,,,,,,,,,,,,,,,,,,,,,,,,,589cc7bd8bf22a00015b7b30,5fe1920ce66d7fc125cbc35f,2020-12-22_00h31.46.743,FlowerSimilarity_Experiment,2020.1.2,Win32,60,5fe17d4a51f3a9c1a60f9869,,,,,,,,,,,,,,,,,,,3,FF,,6,2.666,,,,,,,,,,,,,,,,,,,,,,,,,,,,,,,,,,83,29,1,0,0,response1disk,9,152,12,-1,1,0,0,rectangle,12,-1,1,0,0,7,5,"[251,175,322,306,236,109,312,160,126,25,128,80,132,292,40,145,216,92,187,136]",12,-1,1,0,0,0,151,151,143,1,,,,,,,,,,,,,,,,,,,,,,,
,,,,,,,,,,,,,,,,,,,,,,,,,,,,,,,,,,,,,,,,,,,589cc7bd8bf22a00015b7b30,5fe1920ce66d7fc125cbc35f,2020-12-22_00h31.46.743,FlowerSimilarity_Experiment,2020.1.2,Win32,60,5fe17d4a51f3a9c1a60f9869,,,,,,,,,,,,,,,,,,,5,PF,,5,3.532,,,,,,,,,,,,,,,,,,,,,,,,,,,,,,,,,,64,-40,1,0,0,response3disk,7,153,10,-2,1,0,0,rectangle,10,-2,1,0,0,7,4,"[251,175,322,306,236,109,312,160,126,25,128,80,132,292,40,145,216,92,187,136]",10,-2,1,0,0,0,152,152,146,1,,,,,,,,,,,,,,,,,,,,,,,
,,,,,,,,,,,,,,,,,,,,,,,,,,,,,,,,,,,,,,,,,,,589cc7bd8bf22a00015b7b30,5fe1920ce66d7fc125cbc35f,2020-12-22_00h31.46.743,FlowerSimilarity_Experiment,2020.1.2,Win32,60,5fe17d4a51f3a9c1a60f9869,,,,,,,,,,,,,,,,,,,3,PF,,5,3.911,,,,,,,,,,,,,,,,,,,,,,,,,,,,,,,,,,76,-20,1,0,0,response3disk,5,154,3,10,1,0,0,rectangle,3,10,1,0,0,7,6,"[251,175,322,306,236,109,312,160,126,25,128,80,132,292,40,145,216,92,187,136]",3,10,1,0,0,0,153,153,66,1,,,,,,,,,,,,,,,,,,,,,,,
,,,,,,,,,,,,,,,,,,,,,,,,,,,,,,,,,,,,,,,,,,,589cc7bd8bf22a00015b7b30,5fe1920ce66d7fc125cbc35f,2020-12-22_00h31.46.743,FlowerSimilarity_Experiment,2020.1.2,Win32,60,5fe17d4a51f3a9c1a60f9869,,,,,,,,,,,,,,,,,,,7,FF,,0,1.949,,,,,,,,,,,,,,,,,,,,,,,,,,,,,,,,,,-25,91,1,0,0,response7disk,7,155,-4,0,1,0,0,rectangle,-4,0,1,0,0,7,5,"[251,175,322,306,236,109,312,160,126,25,128,80,132,292,40,145,216,92,187,136]",-4,0,1,0,0,0,154,154,34,1,,,,,,,,,,,,,,,,,,,,,,,
,,,,,,,,,,,,,,,,,,,,,,,,,,,,,,,,,,,,,,,,,,,589cc7bd8bf22a00015b7b30,5fe1920ce66d7fc125cbc35f,2020-12-22_00h31.46.743,FlowerSimilarity_Experiment,2020.1.2,Win32,60,5fe17d4a51f3a9c1a60f9869,,,,,,,,,,,,,,,,,,,6,FF,,2,2.007,,,,,,,,,,,,,,,,,,,,,,,,,,,,,,,,,,-67,-26,1,0,0,response5disk,9,156,-10,10,1,0,0,rectangle,-10,10,1,0,0,7,3,"[251,175,322,306,236,109,312,160,126,25,128,80,132,292,40,145,216,92,187,136]",-10,10,1,0,0,0,155,155,160,1,,,,,,,,,,,,,,,,,,,,,,,
,,,,,,,,,,,,,,,,,,,,,,,,,,,,,,,,,,,,,,,,,,,589cc7bd8bf22a00015b7b30,5fe1920ce66d7fc125cbc35f,2020-12-22_00h31.46.743,FlowerSimilarity_Experiment,2020.1.2,Win32,60,5fe17d4a51f3a9c1a60f9869,,,,,,,,,,,,,,,,,,,2,PF,,4,2.228,,,,,,,,,,,,,,,,,,,,,,,,,,,,,,,,,,26,-64,1,0,0,response3disk,7,157,5,-10,1,0,0,rectangle,5,-10,1,0,0,7,6,"[251,175,322,306,236,109,312,160,126,25,128,80,132,292,40,145,216,92,187,136]",5,-10,1,0,0,0,156,156,107,1,,,,,,,,,,,,,,,,,,,,,,,
,,,,,,,,,,,,,,,,,,,,,,,,,,,,,,,,,,,,,,,,,,,589cc7bd8bf22a00015b7b30,5fe1920ce66d7fc125cbc35f,2020-12-22_00h31.46.743,FlowerSimilarity_Experiment,2020.1.2,Win32,60,5fe17d4a51f3a9c1a60f9869,,,,,,,,,,,,,,,,,,,1,FF,,2,1.946,,,,,,,,,,,,,,,,,,,,,,,,,,,,,,,,,,-60,-35,1,0,0,response5disk,9,158,-12,-1,1,0,0,rectangle,-12,-1,1,0,0,7,7,"[251,175,322,306,236,109,312,160,126,25,128,80,132,292,40,145,216,92,187,136]",-12,-1,1,0,0,0,157,157,123,1,,,,,,,,,,,,,,,,,,,,,,,
,,,,,,,,,,,,,,,,,,,,,,,,,,,,,,,,,,,,,,,,,,,589cc7bd8bf22a00015b7b30,5fe1920ce66d7fc125cbc35f,2020-12-22_00h31.46.743,FlowerSimilarity_Experiment,2020.1.2,Win32,60,5fe17d4a51f3a9c1a60f9869,,,,,,,,,,,,,,,,,,,3,PF,,1,2.706,,,,,,,,,,,,,,,,,,,,,,,,,,,,,,,,,,-68,56,1,0,0,response7disk,7,159,11,-7,1,0,0,rectangle,11,-7,1,0,0,7,1,"[251,175,322,306,236,109,312,160,126,25,128,80,132,292,40,145,216,92,187,136]",11,-7,1,0,0,0,158,158,41,1,,,,,,,,,,,,,,,,,,,,,,,
,,,,,,,,,,,,,,,,,,,,,,,,,,,,,,,,,,,,,,,,,,,589cc7bd8bf22a00015b7b30,5fe1920ce66d7fc125cbc35f,2020-12-22_00h31.46.743,FlowerSimilarity_Experiment,2020.1.2,Win32,60,5fe17d4a51f3a9c1a60f9869,,,,,,,,,,,,,,,,,,,8,FF,,4,3.389,,,,,,,,,,,,,,,,,,,,,,,,,,,,,,,,,,30,-67,1,0,0,response3disk,9,160,0,8,1,0,0,rectangle,-21,-64,1,0,0,3,3,"[251,175,322,306,236,109,312,160,126,25,128,80,132,292,40,145,216,92,187,136]",-6,-7,1,0,0,0,159,159,105,1,response5disk_3,rectangle,,,,,,,,,,,,,,,,,,,,,
,,,,,,,,,,,,,,,,,,,,,,,,,,,,,,,,,,,,,,,,,,,589cc7bd8bf22a00015b7b30,5fe1920ce66d7fc125cbc35f,2020-12-22_00h31.46.743,FlowerSimilarity_Experiment,2020.1.2,Win32,60,5fe17d4a51f3a9c1a60f9869,,,,,,,,,,,,,,,,,,,1,PF,,5,3.534,,,,,,,,,,,,,,,,,,,,,,,,,,,,,,,,,,54,-33,1,0,0,response3disk,7,161,12,-4,1,0,0,rectangle,12,-4,1,0,0,3,7,"[251,175,322,306,236,109,312,160,126,25,128,80,132,292,40,145,216,92,187,136]",12,-4,1,0,0,0,160,160,150,1,,,,,,,,,,,,,,,,,,,,,,,
,,,,,,,,,,,,,,,,,,,,,,,,,,,,,,,,,,,,,,,,,,,589cc7bd8bf22a00015b7b30,5fe1920ce66d7fc125cbc35f,2020-12-22_00h31.46.743,FlowerSimilarity_Experiment,2020.1.2,Win32,60,5fe17d4a51f3a9c1a60f9869,,,,,,,,,,,,,,,,,,,6,PF,,0,1.627,,,,,,,,,,,,,,,,,,,,,,,,,,,,,,,,,,-20,77,1,0,0,response7disk,6,162,-8,3,1,0,0,rectangle,-8,3,1,0,0,3,0,"[251,175,322,306,236,109,312,160,126,25,128,80,132,292,40,145,216,92,187,136]",-8,3,1,0,0,0,161,161,0,1,,,,,,,,,,,,,,,,,,,,,,,
,,,,,,,,,,,,,,,,,,,,,,,,,,,,,,,,,,,,,,,,,,,589cc7bd8bf22a00015b7b30,5fe1920ce66d7fc125cbc35f,2020-12-22_00h31.46.743,FlowerSimilarity_Experiment,2020.1.2,Win32,60,5fe17d4a51f3a9c1a60f9869,,,,,,,,,,,,,,,,,,,,,,,,,,,,,,,,,,,,,,,,,,,,,,,,,,,,,,,,,,,,,,,,,,,,,,,,,,,,,,,,,,,,,,,,,,,0,0,0,0,1,,,,,,,,,,,,,,,,
,,,,,,,,,,,,,,,,,,,,,,,,,,,,,,,,,,,,,,,,,,,589cc7bd8bf22a00015b7b30,5fe1920ce66d7fc125cbc35f,2020-12-22_00h31.46.743,FlowerSimilarity_Experiment,2020.1.2,Win32,60,5fe17d4a51f3a9c1a60f9869,,,,,,,,,,,,,,,,,,,6,FF,,7,5.744,,,,,,,,,,,,,,,,,,,,,,,,,,,,,,,,,,43,93,1,0,0,response1disk,4,163,-13,-1,1,0,0,rectangle,-13,-1,1,0,0,3,7,"[251,175,322,306,236,109,312,160,126,25,128,80,132,292,40,145,216,92,187,136]",-13,-1,1,0,0,0,0,0,56,1,,,,,,,,,,,,,,,,,,,,,,,
,,,,,,,,,,,,,,,,,,,,,,,,,,,,,,,,,,,,,,,,,,,589cc7bd8bf22a00015b7b30,5fe1920ce66d7fc125cbc35f,2020-12-22_00h31.46.743,FlowerSimilarity_Experiment,2020.1.2,Win32,60,5fe17d4a51f3a9c1a60f9869,,,,,,,,,,,,,,,,,,,2,PF,,3,4.195,,,,,,,,,,,,,,,,,,,,,,,,,,,,,,,,,,-27,-72,1,0,0,response5disk,5,164,-1,0,1,0,0,rectangle,-1,0,1,0,0,3,4,"[251,175,322,306,236,109,312,160,126,25,128,80,132,292,40,145,216,92,187,136]",-1,0,1,0,0,0,1,1,147,1,,,,,,,,,,,,,,,,,,,,,,,
,,,,,,,,,,,,,,,,,,,,,,,,,,,,,,,,,,,,,,,,,,,589cc7bd8bf22a00015b7b30,5fe1920ce66d7fc125cbc35f,2020-12-22_00h31.46.743,FlowerSimilarity_Experiment,2020.1.2,Win32,60,5fe17d4a51f3a9c1a60f9869,,,,,,,,,,,,,,,,,,,8,PF,,4,3.21,,,,,,,,,,,,,,,,,,,,,,,,,,,,,,,,,,46,-87,1,0,0,response3disk,7,165,5,-8,1,0,0,rectangle,5,-8,1,0,0,3,1,"[251,175,322,306,236,109,312,160,126,25,128,80,132,292,40,145,216,92,187,136]",5,-8,1,0,0,0,2,2,23,1,,,,,,,,,,,,,,,,,,,,,,,
,,,,,,,,,,,,,,,,,,,,,,,,,,,,,,,,,,,,,,,,,,,589cc7bd8bf22a00015b7b30,5fe1920ce66d7fc125cbc35f,2020-12-22_00h31.46.743,FlowerSimilarity_Experiment,2020.1.2,Win32,60,5fe17d4a51f3a9c1a60f9869,,,,,,,,,,,,,,,,,,,4,PF,,6,2.609,,,,,,,,,,,,,,,,,,,,,,,,,,,,,,,,,,73,60,1,0,0,response1disk,8,166,1,-11,1,0,0,rectangle,1,-11,1,0,0,3,3,"[251,175,322,306,236,109,312,160,126,25,128,80,132,292,40,145,216,92,187,136]",1,-11,1,0,0,0,3,3,124,1,,,,,,,,,,,,,,,,,,,,,,,
,,,,,,,,,,,,,,,,,,,,,,,,,,,,,,,,,,,,,,,,,,,589cc7bd8bf22a00015b7b30,5fe1920ce66d7fc125cbc35f,2020-12-22_00h31.46.743,FlowerSimilarity_Experiment,2020.1.2,Win32,60,5fe17d4a51f3a9c1a60f9869,,,,,,,,,,,,,,,,,,,3,FF,,7,2.103,,,,,,,,,,,,,,,,,,,,,,,,,,,,,,,,,,27,66,1,0,0,response1disk,4,167,-4,2,1,0,0,rectangle,-4,2,1,0,0,3,4,"[251,175,322,306,236,109,312,160,126,25,128,80,132,292,40,145,216,92,187,136]",-4,2,1,0,0,0,4,4,110,1,,,,,,,,,,,,,,,,,,,,,,,
,,,,,,,,,,,,,,,,,,,,,,,,,,,,,,,,,,,,,,,,,,,589cc7bd8bf22a00015b7b30,5fe1920ce66d7fc125cbc35f,2020-12-22_00h31.46.743,FlowerSimilarity_Experiment,2020.1.2,Win32,60,5fe17d4a51f3a9c1a60f9869,,,,,,,,,,,,,,,,,,,9,PF,,4,3.892,,,,,,,,,,,,,,,,,,,,,,,,,,,,,,,,,,25,-62,1,0,0,response3disk,2,168,4,10,1,0,0,rectangle,4,10,1,0,0,3,6,"[251,175,322,306,236,109,312,160,126,25,128,80,132,292,40,145,216,92,187,136]",4,10,1,0,0,0,5,5,157,1,,,,,,,,,,,,,,,,,,,,,,,
,,,,,,,,,,,,,,,,,,,,,,,,,,,,,,,,,,,,,,,,,,,589cc7bd8bf22a00015b7b30,5fe1920ce66d7fc125cbc35f,2020-12-22_00h31.46.743,FlowerSimilarity_Experiment,2020.1.2,Win32,60,5fe17d4a51f3a9c1a60f9869,,,,,,,,,,,,,,,,,,,9,PF,,5,2.526,,,,,,,,,,,,,,,,,,,,,,,,,,,,,,,,,,66,-28,1,0,0,response3disk,7,169,6,0,1,0,0,rectangle,6,0,1,0,0,3,7,"[251,175,322,306,236,109,312,160,126,25,128,80,132,292,40,145,216,92,187,136]",6,0,1,0,0,0,6,6,121,1,,,,,,,,,,,,,,,,,,,,,,,
,,,,,,,,,,,,,,,,,,,,,,,,,,,,,,,,,,,,,,,,,,,589cc7bd8bf22a00015b7b30,5fe1920ce66d7fc125cbc35f,2020-12-22_00h31.46.743,FlowerSimilarity_Experiment,2020.1.2,Win32,60,5fe17d4a51f3a9c1a60f9869,,,,,,,,,,,,,,,,,,,9,PF,,4,4.212,,,,,,,,,,,,,,,,,,,,,,,,,,,,,,,,,,29,-72,1,0,0,response3disk,8,170,7,1,1,0,0,rectangle,7,1,1,0,0,3,2,"[251,175,322,306,236,109,312,160,126,25,128,80,132,292,40,145,216,92,187,136]",7,1,1,0,0,0,7,7,67,1,,,,,,,,,,,,,,,,,,,,,,,
,,,,,,,,,,,,,,,,,,,,,,,,,,,,,,,,,,,,,,,,,,,589cc7bd8bf22a00015b7b30,5fe1920ce66d7fc125cbc35f,2020-12-22_00h31.46.743,FlowerSimilarity_Experiment,2020.1.2,Win32,60,5fe17d4a51f3a9c1a60f9869,,,,,,,,,,,,,,,,,,,5,FF,,4,3.249,,,,,,,,,,,,,,,,,,,,,,,,,,,,,,,,,,22,-65,1,0,0,response3disk,7,171,-3,5,1,0,0,rectangle,-3,5,1,0,0,3,5,"[251,175,322,306,236,109,312,160,126,25,128,80,132,292,40,145,216,92,187,136]",-3,5,1,0,0,0,8,8,7,1,,,,,,,,,,,,,,,,,,,,,,,
,,,,,,,,,,,,,,,,,,,,,,,,,,,,,,,,,,,,,,,,,,,589cc7bd8bf22a00015b7b30,5fe1920ce66d7fc125cbc35f,2020-12-22_00h31.46.743,FlowerSimilarity_Experiment,2020.1.2,Win32,60,5fe17d4a51f3a9c1a60f9869,,,,,,,,,,,,,,,,,,,2,PF,,4,4.893,,,,,,,,,,,,,,,,,,,,,,,,,,,,,,,,,,29,-98,1,0,0,response3disk,4,172,3,3,1,0,0,rectangle,3,3,1,0,0,3,4,"[251,175,322,306,236,109,312,160,126,25,128,80,132,292,40,145,216,92,187,136]",3,3,1,0,0,0,9,9,127,1,,,,,,,,,,,,,,,,,,,,,,,
,,,,,,,,,,,,,,,,,,,,,,,,,,,,,,,,,,,,,,,,,,,589cc7bd8bf22a00015b7b30,5fe1920ce66d7fc125cbc35f,2020-12-22_00h31.46.743,FlowerSimilarity_Experiment,2020.1.2,Win32,60,5fe17d4a51f3a9c1a60f9869,,,,,,,,,,,,,,,,,,,8,FF,,0,1.406,,,,,,,,,,,,,,,,,,,,,,,,,,,,,,,,,,-33,93,1,0,0,response7disk,8,173,-5,9,1,0,0,rectangle,-5,9,1,0,0,3,2,"[251,175,322,306,236,109,312,160,126,25,128,80,132,292,40,145,216,92,187,136]",-5,9,1,0,0,0,10,10,48,1,,,,,,,,,,,,,,,,,,,,,,,
,,,,,,,,,,,,,,,,,,,,,,,,,,,,,,,,,,,,,,,,,,,589cc7bd8bf22a00015b7b30,5fe1920ce66d7fc125cbc35f,2020-12-22_00h31.46.743,FlowerSimilarity_Experiment,2020.1.2,Win32,60,5fe17d4a51f3a9c1a60f9869,,,,,,,,,,,,,,,,,,,4,PF,,3,2.311,,,,,,,,,,,,,,,,,,,,,,,,,,,,,,,,,,-31,-74,1,0,0,response5disk,7,174,-1,0,1,0,0,rectangle,-1,0,1,0,0,3,2,"[251,175,322,306,236,109,312,160,126,25,128,80,132,292,40,145,216,92,187,136]",-1,0,1,0,0,0,11,11,38,1,,,,,,,,,,,,,,,,,,,,,,,
,,,,,,,,,,,,,,,,,,,,,,,,,,,,,,,,,,,,,,,,,,,589cc7bd8bf22a00015b7b30,5fe1920ce66d7fc125cbc35f,2020-12-22_00h31.46.743,FlowerSimilarity_Experiment,2020.1.2,Win32,60,5fe17d4a51f3a9c1a60f9869,,,,,,,,,,,,,,,,,,,4,FF,,7,2.931,,,,,,,,,,,,,,,,,,,,,,,,,,,,,,,,,,53,86,1,0,0,response1disk,8,175,-6,-9,1,0,0,rectangle,24,-50,1,0,0,4,4,"[251,175,322,306,236,109,312,160,126,25,128,80,132,292,40,145,216,92,187,136]",-3,5,1,0,0,0,12,12,35,1,response3disk_3,rectangle,,,,,,,,,,,,,,,,,,,,,
,,,,,,,,,,,,,,,,,,,,,,,,,,,,,,,,,,,,,,,,,,,589cc7bd8bf22a00015b7b30,5fe1920ce66d7fc125cbc35f,2020-12-22_00h31.46.743,FlowerSimilarity_Experiment,2020.1.2,Win32,60,5fe17d4a51f3a9c1a60f9869,,,,,,,,,,,,,,,,,,,6,FF,,4,2.916,,,,,,,,,,,,,,,,,,,,,,,,,,,,,,,,,,47,-70,1,0,0,response3disk,8,176,9,-6,1,0,0,rectangle,9,-6,1,0,0,4,3,"[251,175,322,306,236,109,312,160,126,25,128,80,132,292,40,145,216,92,187,136]",9,-6,1,0,0,0,13,13,133,1,,,,,,,,,,,,,,,,,,,,,,,
,,,,,,,,,,,,,,,,,,,,,,,,,,,,,,,,,,,,,,,,,,,589cc7bd8bf22a00015b7b30,5fe1920ce66d7fc125cbc35f,2020-12-22_00h31.46.743,FlowerSimilarity_Experiment,2020.1.2,Win32,60,5fe17d4a51f3a9c1a60f9869,,,,,,,,,,,,,,,,,,,4,FF,,5,3.517,,,,,,,,,,,,,,,,,,,,,,,,,,,,,,,,,,62,-40,1,0,0,response3disk,3,177,-9,7,1,0,0,rectangle,-9,7,1,0,0,4,3,"[251,175,322,306,236,109,312,160,126,25,128,80,132,292,40,145,216,92,187,136]",-9,7,1,0,0,0,14,14,77,1,,,,,,,,,,,,,,,,,,,,,,,
,,,,,,,,,,,,,,,,,,,,,,,,,,,,,,,,,,,,,,,,,,,589cc7bd8bf22a00015b7b30,5fe1920ce66d7fc125cbc35f,2020-12-22_00h31.46.743,FlowerSimilarity_Experiment,2020.1.2,Win32,60,5fe17d4a51f3a9c1a60f9869,,,,,,,,,,,,,,,,,,,4,FF,,5,3.253,,,,,,,,,,,,,,,,,,,,,,,,,,,,,,,,,,66,-42,1,0,0,response3disk,9,178,1,2,1,0,0,rectangle,1,2,1,0,0,4,3,"[251,175,322,306,236,109,312,160,126,25,128,80,132,292,40,145,216,92,187,136]",1,2,1,0,0,0,15,15,90,1,,,,,,,,,,,,,,,,,,,,,,,
,,,,,,,,,,,,,,,,,,,,,,,,,,,,,,,,,,,,,,,,,,,589cc7bd8bf22a00015b7b30,5fe1920ce66d7fc125cbc35f,2020-12-22_00h31.46.743,FlowerSimilarity_Experiment,2020.1.2,Win32,60,5fe17d4a51f3a9c1a60f9869,,,,,,,,,,,,,,,,,,,6,FF,,4,2.612,,,,,,,,,,,,,,,,,,,,,,,,,,,,,,,,,,31,-69,1,0,0,response3disk,5,179,-3,-2,1,0,0,rectangle,-3,-2,1,0,0,4,5,"[251,175,322,306,236,109,312,160,126,25,128,80,132,292,40,145,216,92,187,136]",-3,-2,1,0,0,0,16,16,126,1,,,,,,,,,,,,,,,,,,,,,,,
,,,,,,,,,,,,,,,,,,,,,,,,,,,,,,,,,,,,,,,,,,,589cc7bd8bf22a00015b7b30,5fe1920ce66d7fc125cbc35f,2020-12-22_00h31.46.743,FlowerSimilarity_Experiment,2020.1.2,Win32,60,5fe17d4a51f3a9c1a60f9869,,,,,,,,,,,,,,,,,,,9,FF,,4,2.199,,,,,,,,,,,,,,,,,,,,,,,,,,,,,,,,,,29,-69,1,0,0,response3disk,5,180,0,10,1,0,0,rectangle,0,10,1,0,0,4,3,"[251,175,322,306,236,109,312,160,126,25,128,80,132,292,40,145,216,92,187,136]",0,10,1,0,0,0,17,17,128,1,,,,,,,,,,,,,,,,,,,,,,,
,,,,,,,,,,,,,,,,,,,,,,,,,,,,,,,,,,,,,,,,,,,589cc7bd8bf22a00015b7b30,5fe1920ce66d7fc125cbc35f,2020-12-22_00h31.46.743,FlowerSimilarity_Experiment,2020.1.2,Win32,60,5fe17d4a51f3a9c1a60f9869,,,,,,,,,,,,,,,,,,,1,PF,,2,2.547,,,,,,,,,,,,,,,,,,,,,,,,,,,,,,,,,,-86,-26,1,0,0,response5disk,9,181,-20,-1,1,0,0,rectangle,-20,-1,1,0,0,4,7,"[251,175,322,306,236,109,312,160,126,25,128,80,132,292,40,145,216,92,187,136]",-20,-1,1,0,0,0,18,18,15,1,,,,,,,,,,,,,,,,,,,,,,,
,,,,,,,,,,,,,,,,,,,,,,,,,,,,,,,,,,,,,,,,,,,589cc7bd8bf22a00015b7b30,5fe1920ce66d7fc125cbc35f,2020-12-22_00h31.46.743,FlowerSimilarity_Experiment,2020.1.2,Win32,60,5fe17d4a51f3a9c1a60f9869,,,,,,,,,,,,,,,,,,,7,PF,,5,4.767,,,,,,,,,,,,,,,,,,,,,,,,,,,,,,,,,,79,-37,1,0,0,response3disk,1,182,-1,3,1,0,0,rectangle,-1,3,1,0,0,4,7,"[251,175,322,306,236,109,312,160,126,25,128,80,132,292,40,145,216,92,187,136]",-1,3,1,0,0,0,19,19,53,1,,,,,,,,,,,,,,,,,,,,,,,
,,,,,,,,,,,,,,,,,,,,,,,,,,,,,,,,,,,,,,,,,,,589cc7bd8bf22a00015b7b30,5fe1920ce66d7fc125cbc35f,2020-12-22_00h31.46.743,FlowerSimilarity_Experiment,2020.1.2,Win32,60,5fe17d4a51f3a9c1a60f9869,,,,,,,,,,,,,,,,,,,8,FF,,6,5.663,,,,,,,,,,,,,,,,,,,,,,,,,,,,,,,,,,88,32,1,0,0,response1disk,4,183,-3,2,1,0,0,rectangle,-3,2,1,0,0,4,6,"[251,175,322,306,236,109,312,160,126,25,128,80,132,292,40,145,216,92,187,136]",-3,2,1,0,0,0,20,20,88,1,,,,,,,,,,,,,,,,,,,,,,,
,,,,,,,,,,,,,,,,,,,,,,,,,,,,,,,,,,,,,,,,,,,589cc7bd8bf22a00015b7b30,5fe1920ce66d7fc125cbc35f,2020-12-22_00h31.46.743,FlowerSimilarity_Experiment,2020.1.2,Win32,60,5fe17d4a51f3a9c1a60f9869,,,,,,,,,,,,,,,,,,,3,FF,,0,3.531,,,,,,,,,,,,,,,,,,,,,,,,,,,,,,,,,,-29,77,1,0,0,response7disk,3,184,0,11,1,0,0,rectangle,0,11,1,0,0,4,1,"[251,175,322,306,236,109,312,160,126,25,128,80,132,292,40,145,216,92,187,136]",0,11,1,0,0,0,21,21,68,1,,,,,,,,,,,,,,,,,,,,,,,
,,,,,,,,,,,,,,,,,,,,,,,,,,,,,,,,,,,,,,,,,,,589cc7bd8bf22a00015b7b30,5fe1920ce66d7fc125cbc35f,2020-12-22_00h31.46.743,FlowerSimilarity_Experiment,2020.1.2,Win32,60,5fe17d4a51f3a9c1a60f9869,,,,,,,,,,,,,,,,,,,8,FF,,5,5.559,,,,,,,,,,,,,,,,,,,,,,,,,,,,,,,,,,59,-26,1,0,0,response3disk,1,185,9,-1,1,0,0,rectangle,9,-1,1,0,0,4,4,"[251,175,322,306,236,109,312,160,126,25,128,80,132,292,40,145,216,92,187,136]",9,-1,1,0,0,0,22,22,20,1,,,,,,,,,,,,,,,,,,,,,,,
,,,,,,,,,,,,,,,,,,,,,,,,,,,,,,,,,,,,,,,,,,,589cc7bd8bf22a00015b7b30,5fe1920ce66d7fc125cbc35f,2020-12-22_00h31.46.743,FlowerSimilarity_Experiment,2020.1.2,Win32,60,5fe17d4a51f3a9c1a60f9869,,,,,,,,,,,,,,,,,,,6,PF,,2,11.034,,,,,,,,,,,,,,,,,,,,,,,,,,,,,,,,,,-106,-44,1,0,0,response5disk,9,186,-5,4,1,0,0,rectangle,-5,4,1,0,0,4,6,"[251,175,322,306,236,109,312,160,126,25,128,80,132,292,40,145,216,92,187,136]",-5,4,1,0,0,0,23,23,45,1,,,,,,,,,,,,,,,,,,,,,,,
,,,,,,,,,,,,,,,,,,,,,,,,,,,,,,,,,,,,,,,,,,,589cc7bd8bf22a00015b7b30,5fe1920ce66d7fc125cbc35f,2020-12-22_00h31.46.743,FlowerSimilarity_Experiment,2020.1.2,Win32,60,5fe17d4a51f3a9c1a60f9869,,,,,,,,,,,,,,,,,,,1,PF,,5,3.631,,,,,,,,,,,,,,,,,,,,,,,,,,,,,,,,,,78,-27,1,0,0,response3disk,8,187,12,3,1,0,0,rectangle,27,-88,1,0,0,4,4,"[251,175,322,306,236,109,312,160,126,25,128,80,132,292,40,145,216,92,187,136]",3,5,1,0,0,0,24,24,65,1,response3disk_3,rectangle,,,,,,,,,,,,,,,,,,,,,
,,,,,,,,,,,,,,,,,,,,,,,,,,,,,,,,,,,,,,,,,,,589cc7bd8bf22a00015b7b30,5fe1920ce66d7fc125cbc35f,2020-12-22_00h31.46.743,FlowerSimilarity_Experiment,2020.1.2,Win32,60,5fe17d4a51f3a9c1a60f9869,,,,,,,,,,,,,,,,,,,2,FF,,0,1.791,,,,,,,,,,,,,,,,,,,,,,,,,,,,,,,,,,-34,91,1,0,0,response7disk,2,188,9,-3,1,0,0,rectangle,9,-3,1,0,0,4,6,"[251,175,322,306,236,109,312,160,126,25,128,80,132,292,40,145,216,92,187,136]",9,-3,1,0,0,0,25,25,142,1,,,,,,,,,,,,,,,,,,,,,,,
,,,,,,,,,,,,,,,,,,,,,,,,,,,,,,,,,,,,,,,,,,,589cc7bd8bf22a00015b7b30,5fe1920ce66d7fc125cbc35f,2020-12-22_00h31.46.743,FlowerSimilarity_Experiment,2020.1.2,Win32,60,5fe17d4a51f3a9c1a60f9869,,,,,,,,,,,,,,,,,,,8,PF,,7,3.389,,,,,,,,,,,,,,,,,,,,,,,,,,,,,,,,,,43,108,1,0,0,response1disk,4,189,-13,3,1,0,0,rectangle,-13,3,1,0,0,4,6,"[251,175,322,306,236,109,312,160,126,25,128,80,132,292,40,145,216,92,187,136]",-13,3,1,0,0,0,26,26,78,1,,,,,,,,,,,,,,,,,,,,,,,
,,,,,,,,,,,,,,,,,,,,,,,,,,,,,,,,,,,,,,,,,,,589cc7bd8bf22a00015b7b30,5fe1920ce66d7fc125cbc35f,2020-12-22_00h31.46.743,FlowerSimilarity_Experiment,2020.1.2,Win32,60,5fe17d4a51f3a9c1a60f9869,,,,,,,,,,,,,,,,,,,9,FF,,4,4.191,,,,,,,,,,,,,,,,,,,,,,,,,,,,,,,,,,43,-64,1,0,0,response3disk,2,190,-2,-10,1,0,0,rectangle,-2,-10,1,0,0,4,3,"[251,175,322,306,236,109,312,160,126,25,128,80,132,292,40,145,216,92,187,136]",-2,-10,1,0,0,0,27,27,11,1,,,,,,,,,,,,,,,,,,,,,,,
,,,,,,,,,,,,,,,,,,,,,,,,,,,,,,,,,,,,,,,,,,,589cc7bd8bf22a00015b7b30,5fe1920ce66d7fc125cbc35f,2020-12-22_00h31.46.743,FlowerSimilarity_Experiment,2020.1.2,Win32,60,5fe17d4a51f3a9c1a60f9869,,,,,,,,,,,,,,,,,,,4,FF,,6,2.527,,,,,,,,,,,,,,,,,,,,,,,,,,,,,,,,,,74,37,1,0,0,response1disk,6,191,8,4,1,0,0,rectangle,8,4,1,0,0,4,2,"[251,175,322,306,236,109,312,160,126,25,128,80,132,292,40,145,216,92,187,136]",8,4,1,0,0,0,28,28,122,1,,,,,,,,,,,,,,,,,,,,,,,
,,,,,,,,,,,,,,,,,,,,,,,,,,,,,,,,,,,,,,,,,,,589cc7bd8bf22a00015b7b30,5fe1920ce66d7fc125cbc35f,2020-12-22_00h31.46.743,FlowerSimilarity_Experiment,2020.1.2,Win32,60,5fe17d4a51f3a9c1a60f9869,,,,,,,,,,,,,,,,,,,1,PF,,0,2.189,,,,,,,,,,,,,,,,,,,,,,,,,,,,,,,,,,-28,98,1,0,0,response7disk,1,192,2,-5,1,0,0,rectangle,2,-5,1,0,0,4,5,"[251,175,322,306,236,109,312,160,126,25,128,80,132,292,40,145,216,92,187,136]",2,-5,1,0,0,0,29,29,76,1,,,,,,,,,,,,,,,,,,,,,,,
,,,,,,,,,,,,,,,,,,,,,,,,,,,,,,,,,,,,,,,,,,,589cc7bd8bf22a00015b7b30,5fe1920ce66d7fc125cbc35f,2020-12-22_00h31.46.743,FlowerSimilarity_Experiment,2020.1.2,Win32,60,5fe17d4a51f3a9c1a60f9869,,,,,,,,,,,,,,,,,,,4,PF,,0,2.355,,,,,,,,,,,,,,,,,,,,,,,,,,,,,,,,,,-32,71,1,0,0,response7disk,4,193,-3,4,1,0,0,rectangle,-3,4,1,0,0,4,5,"[251,175,322,306,236,109,312,160,126,25,128,80,132,292,40,145,216,92,187,136]",-3,4,1,0,0,0,30,30,70,1,,,,,,,,,,,,,,,,,,,,,,,
,,,,,,,,,,,,,,,,,,,,,,,,,,,,,,,,,,,,,,,,,,,589cc7bd8bf22a00015b7b30,5fe1920ce66d7fc125cbc35f,2020-12-22_00h31.46.743,FlowerSimilarity_Experiment,2020.1.2,Win32,60,5fe17d4a51f3a9c1a60f9869,,,,,,,,,,,,,,,,,,,9,FF,,2,8.24,,,,,,,,,,,,,,,,,,,,,,,,,,,,,,,,,,-75,-39,1,0,0,response5disk,1,194,-7,6,1,0,0,rectangle,-7,6,1,0,0,4,1,"[251,175,322,306,236,109,312,160,126,25,128,80,132,292,40,145,216,92,187,136]",-7,6,1,0,0,0,31,31,111,1,,,,,,,,,,,,,,,,,,,,,,,
,,,,,,,,,,,,,,,,,,,,,,,,,,,,,,,,,,,,,,,,,,,589cc7bd8bf22a00015b7b30,5fe1920ce66d7fc125cbc35f,2020-12-22_00h31.46.743,FlowerSimilarity_Experiment,2020.1.2,Win32,60,5fe17d4a51f3a9c1a60f9869,,,,,,,,,,,,,,,,,,,7,PF,,7,2.798,,,,,,,,,,,,,,,,,,,,,,,,,,,,,,,,,,47,85,1,0,0,response1disk,6,195,-3,-1,1,0,0,rectangle,-3,-1,1,0,0,4,3,"[251,175,322,306,236,109,312,160,126,25,128,80,132,292,40,145,216,92,187,136]",-3,-1,1,0,0,0,32,32,29,1,,,,,,,,,,,,,,,,,,,,,,,
,,,,,,,,,,,,,,,,,,,,,,,,,,,,,,,,,,,,,,,,,,,589cc7bd8bf22a00015b7b30,5fe1920ce66d7fc125cbc35f,2020-12-22_00h31.46.743,FlowerSimilarity_Experiment,2020.1.2,Win32,60,5fe17d4a51f3a9c1a60f9869,,,,,,,,,,,,,,,,,,,5,FF,,5,2.59,,,,,,,,,,,,,,,,,,,,,,,,,,,,,,,,,,55,-23,1,0,0,response3disk,9,196,2,-2,1,0,0,rectangle,2,-2,1,0,0,4,4,"[251,175,322,306,236,109,312,160,126,25,128,80,132,292,40,145,216,92,187,136]",2,-2,1,0,0,0,33,33,61,1,,,,,,,,,,,,,,,,,,,,,,,
,,,,,,,,,,,,,,,,,,,,,,,,,,,,,,,,,,,,,,,,,,,589cc7bd8bf22a00015b7b30,5fe1920ce66d7fc125cbc35f,2020-12-22_00h31.46.743,FlowerSimilarity_Experiment,2020.1.2,Win32,60,5fe17d4a51f3a9c1a60f9869,,,,,,,,,,,,,,,,,,,2,PF,,4,4.618,,,,,,,,,,,,,,,,,,,,,,,,,,,,,,,,,,49,-89,1,0,0,response3disk,8,197,3,-2,1,0,0,rectangle,3,-2,1,0,0,4,1,"[251,175,322,306,236,109,312,160,126,25,128,80,132,292,40,145,216,92,187,136]",3,-2,1,0,0,0,34,34,52,1,,,,,,,,,,,,,,,,,,,,,,,
,,,,,,,,,,,,,,,,,,,,,,,,,,,,,,,,,,,,,,,,,,,589cc7bd8bf22a00015b7b30,5fe1920ce66d7fc125cbc35f,2020-12-22_00h31.46.743,FlowerSimilarity_Experiment,2020.1.2,Win32,60,5fe17d4a51f3a9c1a60f9869,,,,,,,,,,,,,,,,,,,8,FF,,3,7.488,,,,,,,,,,,,,,,,,,,,,,,,,,,,,,,,,,-28,-80,1,0,0,response5disk,6,198,-4,-5,1,0,0,rectangle,-4,-5,1,0,0,4,6,"[251,175,322,306,236,109,312,160,126,25,128,80,132,292,40,145,216,92,187,136]",-4,-5,1,0,0,0,35,35,37,1,,,,,,,,,,,,,,,,,,,,,,,
,,,,,,,,,,,,,,,,,,,,,,,,,,,,,,,,,,,,,,,,,,,589cc7bd8bf22a00015b7b30,5fe1920ce66d7fc125cbc35f,2020-12-22_00h31.46.743,FlowerSimilarity_Experiment,2020.1.2,Win32,60,5fe17d4a51f3a9c1a60f9869,,,,,,,,,,,,,,,,,,,4,FF,,0,2.397,,,,,,,,,,,,,,,,,,,,,,,,,,,,,,,,,,-28,80,1,0,0,response7disk,4,199,-6,7,1,0,0,rectangle,-6,7,1,0,0,4,6,"[251,175,322,306,236,109,312,160,126,25,128,80,132,292,40,145,216,92,187,136]",-6,7,1,0,0,0,36,36,84,1,,,,,,,,,,,,,,,,,,,,,,,
,,,,,,,,,,,,,,,,,,,,,,,,,,,,,,,,,,,,,,,,,,,589cc7bd8bf22a00015b7b30,5fe1920ce66d7fc125cbc35f,2020-12-22_00h31.46.743,FlowerSimilarity_Experiment,2020.1.2,Win32,60,5fe17d4a51f3a9c1a60f9869,,,,,,,,,,,,,,,,,,,5,FF,,7,2.39,,,,,,,,,,,,,,,,,,,,,,,,,,,,,,,,,,45,69,1,0,0,response1disk,4,200,-2,-10,1,0,0,rectangle,-2,-10,1,0,0,4,7,"[251,175,322,306,236,109,312,160,126,25,128,80,132,292,40,145,216,92,187,136]",-2,-10,1,0,0,0,37,37,8,1,,,,,,,,,,,,,,,,,,,,,,,
,,,,,,,,,,,,,,,,,,,,,,,,,,,,,,,,,,,,,,,,,,,589cc7bd8bf22a00015b7b30,5fe1920ce66d7fc125cbc35f,2020-12-22_00h31.46.743,FlowerSimilarity_Experiment,2020.1.2,Win32,60,5fe17d4a51f3a9c1a60f9869,,,,,,,,,,,,,,,,,,,1,PF,,4,5.332,,,,,,,,,,,,,,,,,,,,,,,,,,,,,,,,,,23,-87,1,0,0,response3disk,6,201,4,11,1,0,0,rectangle,4,11,1,0,0,4,7,"[251,175,322,306,236,109,312,160,126,25,128,80,132,292,40,145,216,92,187,136]",4,11,1,0,0,0,38,38,144,1,,,,,,,,,,,,,,,,,,,,,,,
,,,,,,,,,,,,,,,,,,,,,,,,,,,,,,,,,,,,,,,,,,,589cc7bd8bf22a00015b7b30,5fe1920ce66d7fc125cbc35f,2020-12-22_00h31.46.743,FlowerSimilarity_Experiment,2020.1.2,Win32,60,5fe17d4a51f3a9c1a60f9869,,,,,,,,,,,,,,,,,,,4,PF,,2,2.623,,,,,,,,,,,,,,,,,,,,,,,,,,,,,,,,,,-64,-40,1,0,0,response5disk,3,202,0,6,1,0,0,rectangle,0,6,1,0,0,4,0,"[251,175,322,306,236,109,312,160,126,25,128,80,132,292,40,145,216,92,187,136]",0,6,1,0,0,0,39,39,89,1,,,,,,,,,,,,,,,,,,,,,,,
,,,,,,,,,,,,,,,,,,,,,,,,,,,,,,,,,,,,,,,,,,,589cc7bd8bf22a00015b7b30,5fe1920ce66d7fc125cbc35f,2020-12-22_00h31.46.743,FlowerSimilarity_Experiment,2020.1.2,Win32,60,5fe17d4a51f3a9c1a60f9869,,,,,,,,,,,,,,,,,,,5,PF,,4,3.032,,,,,,,,,,,,,,,,,,,,,,,,,,,,,,,,,,22,-88,1,0,0,response3disk,6,203,9,1,1,0,0,rectangle,9,1,1,0,0,4,3,"[251,175,322,306,236,109,312,160,126,25,128,80,132,292,40,145,216,92,187,136]",9,1,1,0,0,0,40,40,103,1,,,,,,,,,,,,,,,,,,,,,,,
,,,,,,,,,,,,,,,,,,,,,,,,,,,,,,,,,,,,,,,,,,,589cc7bd8bf22a00015b7b30,5fe1920ce66d7fc125cbc35f,2020-12-22_00h31.46.743,FlowerSimilarity_Experiment,2020.1.2,Win32,60,5fe17d4a51f3a9c1a60f9869,,,,,,,,,,,,,,,,,,,9,PF,,5,3.423,,,,,,,,,,,,,,,,,,,,,,,,,,,,,,,,,,73,-39,1,0,0,response3disk,4,204,3,6,1,0,0,rectangle,3,6,1,0,0,4,5,"[251,175,322,306,236,109,312,160,126,25,128,80,132,292,40,145,216,92,187,136]",3,6,1,0,0,0,41,41,114,1,,,,,,,,,,,,,,,,,,,,,,,
,,,,,,,,,,,,,,,,,,,,,,,,,,,,,,,,,,,,,,,,,,,589cc7bd8bf22a00015b7b30,5fe1920ce66d7fc125cbc35f,2020-12-22_00h31.46.743,FlowerSimilarity_Experiment,2020.1.2,Win32,60,5fe17d4a51f3a9c1a60f9869,,,,,,,,,,,,,,,,,,,2,FF,,4,2.881,,,,,,,,,,,,,,,,,,,,,,,,,,,,,,,,,,31,-94,1,0,0,response3disk,3,205,-1,3,1,0,0,rectangle,-1,3,1,0,0,4,6,"[251,175,322,306,236,109,312,160,126,25,128,80,132,292,40,145,216,92,187,136]",-1,3,1,0,0,0,42,42,104,1,,,,,,,,,,,,,,,,,,,,,,,
