key_resp.keys,key_resp.rt,key_resp_16.keys,key_resp_16.rt,key_resp_2.keys,key_resp_2.rt,X Scale,ratio_pxpermm,screen_size_x,screen_size_y,testsize,key_resp_3.keys,key_resp_3.rt,key_resp_4.keys,key_resp_4.rt,line_size,key_resp_5.keys,key_resp_5.rt,key_resp_6.keys,key_resp_6.rt,key_resp_8.keys,key_resp_8.rt,key_resp_7.keys,key_resp_7.rt,key_resp_12.keys,key_resp_12.rt,key_resp_11.keys,key_resp_11.rt,key_resp_18.keys,key_resp_18.rt,key_resp_21.keys,key_resp_21.rt,key_resp_13.keys,key_resp_13.rt,key_resp_19.keys,key_resp_19.rt,ballposx,viewer_distance,trials.thisRepN,trials.thisTrialN,trials.thisN,trials.thisIndex,trials.ran,participant,session,date,expName,psychopyVersion,OS,frameRate,study_id,viewerdistancecm,DVA_to_distance,radius_F,radius_P,r_F,R_P,key_resp_20.keys,key_resp_20.rt,key_resp_14.keys,key_resp_14.rt,key_resp_15.keys,key_resp_15.rt,key_resp_17.keys,key_resp_17.rt,key_resp_9.keys,key_resp_9.rt,key_resp_10.keys,key_resp_10.rt,Flower1,Ecc,Flower_2,similarity,response_time,mouse_5.x,mouse_5.y,mouse_5.leftButton,mouse_5.midButton,mouse_5.rightButton,mouse_5.clicked_name,mouse_10.x,mouse_10.y,mouse_10.leftButton,mouse_10.midButton,mouse_10.rightButton,mouse_10.clicked_name,mouse_7.x,mouse_7.y,mouse_7.leftButton,mouse_7.midButton,mouse_7.rightButton,mouse_7.clicked_name,catchprac,catchnumberprac,mouse_6.x,mouse_6.y,mouse_6.leftButton,mouse_6.midButton,mouse_6.rightButton,mouse_6.clicked_name,duringprac.thisRepN,duringprac.thisTrialN,duringprac.thisN,duringprac.thisIndex,duringprac.ran,key_resp_22.keys,key_resp_22.rt,mouse.x,mouse.y,mouse.leftButton,mouse.midButton,mouse.rightButton,mouse.clicked_name,Flower2,trialnumber,mouse_2.x,mouse_2.y,mouse_2.leftButton,mouse_2.midButton,mouse_2.rightButton,mouse_2.clicked_name,mouse_3.x,mouse_3.y,mouse_3.leftButton,mouse_3.midButton,mouse_3.rightButton,catchresponse,catchnumber,catchtrialorder,mouse_11.x,mouse_11.y,mouse_11.leftButton,mouse_11.midButton,mouse_11.rightButton,trials_2.thisRepN,trials_2.thisTrialN,trials_2.thisN,trials_2.thisIndex,trials_2.ran,mouse_3.clicked_name,mouse_11.clicked_name,trials_3.thisRepN,trials_3.thisTrialN,trials_3.thisN,trials_3.thisIndex,trials_3.ran,answer1,rt1,answer2,rt2,answer3,rt3,answer4,rt4,answer5,rt5,answer6,rt6,answer8,rt8,answer7,rt7
space,5.213,space,15.662,space,5.765,40.3,4.03,381.1414392,214.3920596,1536,space,21.203,space,15.091,80.6,space,16.156,space,4.463,space,6.655,space,3.294,space,29.837,space,12.568,space,6.868,space,9.632,space,12.337,return,5.564,-193.536,835.0612616,0,0,0,0,1,59858eab7678a6000110e4d6,5fe19205d71cab4173dc21f5,2020-12-22_07h28.31.583,FlowerSimilarity_Experiment,2020.1.2,Win32,60,5fe17d4a51f3a9c1a60f9869,,,,,,,,,,,,,,,,,,,,,,,,,,,,,,,,,,,,,,,,,,,,,,,,,,,,,,,,,,,,,,,,,,,,,,,,,,,,,,,,,,,,,,,,,,,,,,,,,,,,,,,,,,,,,,,
,,,,,,,,,,,,,,,,,,,,,,,,,,,,,,,,,,return,5.165,-140.544,780.2901332,1,0,1,0,1,59858eab7678a6000110e4d6,5fe19205d71cab4173dc21f5,2020-12-22_07h28.31.583,FlowerSimilarity_Experiment,2020.1.2,Win32,60,5fe17d4a51f3a9c1a60f9869,,,,,,,,,,,,,,,,,,,,,,,,,,,,,,,,,,,,,,,,,,,,,,,,,,,,,,,,,,,,,,,,,,,,,,,,,,,,,,,,,,,,,,,,,,,,,,,,,,,,,,,,,,,,,,,
,,,,,,,,,,,,,,,,,,,,,,,,,,,,,,,,,,return,4.847,-96.768,735.0444184,2,0,2,0,1,59858eab7678a6000110e4d6,5fe19205d71cab4173dc21f5,2020-12-22_07h28.31.583,FlowerSimilarity_Experiment,2020.1.2,Win32,60,5fe17d4a51f3a9c1a60f9869,,,,,,,,,,,,,,,,,,,,,,,,,,,,,,,,,,,,,,,,,,,,,,,,,,,,,,,,,,,,,,,,,,,,,,,,,,,,,,,,,,,,,,,,,,,,,,,,,,,,,,,,,,,,,,,
,,,,,,,,,,,,,,,,,,,,,,,,,,,,,,,,,,return,5.031,-110.592,749.3325389,3,0,3,0,1,59858eab7678a6000110e4d6,5fe19205d71cab4173dc21f5,2020-12-22_07h28.31.583,FlowerSimilarity_Experiment,2020.1.2,Win32,60,5fe17d4a51f3a9c1a60f9869,,,,,,,,,,,,,,,,,,,,,,,,,,,,,,,,,,,,,,,,,,,,,,,,,,,,,,,,,,,,,,,,,,,,,,,,,,,,,,,,,,,,,,,,,,,,,,,,,,,,,,,,,,,,,,,
,,,,,,,,,,,,,,,,,,,,,,,,,,,,,,,,,,return,5.45,-170.496,811.2477275,4,0,4,0,1,59858eab7678a6000110e4d6,5fe19205d71cab4173dc21f5,2020-12-22_07h28.31.583,FlowerSimilarity_Experiment,2020.1.2,Win32,60,5fe17d4a51f3a9c1a60f9869,,,,,,,,,,,,,,,,,,,,,,,,,,,,,,,,,,,,,,,,,,,,,,,,,,,,,,,,,,,,,,,,,,,,,,,,,,,,,,,,,,,,,,,,,,,,,,,,,,,,,,,,,,,,,,,
,,,,,,,,,,,,,,,,,,,,,,,,,,,,,,,,,,,,,,,,,,,59858eab7678a6000110e4d6,5fe19205d71cab4173dc21f5,2020-12-22_07h28.31.583,FlowerSimilarity_Experiment,2020.1.2,Win32,60,5fe17d4a51f3a9c1a60f9869,78,13.61494577,82.30234721,548.6823147,54.86823147,246.9070416,space,8.436,space,11.942,space,13.857,space,10.345,space,3.754,space,4.048,4,PF,9,7,9.525,42,109,1,0,0,response1disk_5,-7,3,1,0,0,rectangle_8,-60,96,1,0,0,response7disk_7,0,0,-6,0,1,0,0,rectangle_4,0,0,0,2,1,,,,,,,,,,,,,,,,,,,,,,,,,,,,,,,,,,,,,,,,,,,,,,,,,,,,,,,,,
,,,,,,,,,,,,,,,,,,,,,,,,,,,,,,,,,,,,,,,,,,,59858eab7678a6000110e4d6,5fe19205d71cab4173dc21f5,2020-12-22_07h28.31.583,FlowerSimilarity_Experiment,2020.1.2,Win32,60,5fe17d4a51f3a9c1a60f9869,,,,,,,,,,,,,,,,,,,1,PF,9,4,6.797,60,-123,1,0,0,response3disk_5,1,5,1,0,0,rectangle_8,1,5,1,0,0,,,0,1,5,1,0,0,,0,1,1,4,1,,,,,,,,,,,,,,,,,,,,,,,,,,,,,,,,,,,,,,,,,,,,,,,,,,,,,,,,,
,,,,,,,,,,,,,,,,,,,,,,,,,,,,,,,,,,,,,,,,,,,59858eab7678a6000110e4d6,5fe19205d71cab4173dc21f5,2020-12-22_07h28.31.583,FlowerSimilarity_Experiment,2020.1.2,Win32,60,5fe17d4a51f3a9c1a60f9869,,,,,,,,,,,,,,,,,,,5,FF,8,2,3.724,-81,-42,1,0,0,response5disk_5,-7,0,1,0,0,rectangle_8,-7,0,1,0,0,,,0,-7,0,1,0,0,,0,2,2,0,1,,,,,,,,,,,,,,,,,,,,,,,,,,,,,,,,,,,,,,,,,,,,,,,,,,,,,,,,,
,,,,,,,,,,,,,,,,,,,,,,,,,,,,,,,,,,,,,,,,,,,59858eab7678a6000110e4d6,5fe19205d71cab4173dc21f5,2020-12-22_07h28.31.583,FlowerSimilarity_Experiment,2020.1.2,Win32,60,5fe17d4a51f3a9c1a60f9869,,,,,,,,,,,,,,,,,,,2,PF,4,3,5.613,-47,-109,1,0,0,response5disk_5,-4,-2,1,0,0,rectangle_8,-66,117,1,0,0,response7disk_7,0,0,-1,2,1,0,0,rectangle_4,0,3,3,6,1,,,,,,,,,,,,,,,,,,,,,,,,,,,,,,,,,,,,,,,,,,,,,,,,,,,,,,,,,
,,,,,,,,,,,,,,,,,,,,,,,,,,,,,,,,,,,,,,,,,,,59858eab7678a6000110e4d6,5fe19205d71cab4173dc21f5,2020-12-22_07h28.31.583,FlowerSimilarity_Experiment,2020.1.2,Win32,60,5fe17d4a51f3a9c1a60f9869,,,,,,,,,,,,,,,,,,,8,PF,2,4,3.617,54,-86,1,0,0,response3disk_5,-2,-5,1,0,0,rectangle_8,-2,-5,1,0,0,,,0,-2,-5,1,0,0,,0,4,4,1,1,,,,,,,,,,,,,,,,,,,,,,,,,,,,,,,,,,,,,,,,,,,,,,,,,,,,,,,,,
,,,,,,,,,,,,,,,,,,,,,,,,,,,,,,,,,,,,,,,,,,,59858eab7678a6000110e4d6,5fe19205d71cab4173dc21f5,2020-12-22_07h28.31.583,FlowerSimilarity_Experiment,2020.1.2,Win32,60,5fe17d4a51f3a9c1a60f9869,,,,,,,,,,,,,,,,,,,6,FF,7,7,1.982,33,96,1,0,0,response1disk_5,2,10,1,0,0,rectangle_8,2,10,1,0,0,,,0,2,10,1,0,0,,0,5,5,3,1,,,,,,,,,,,,,,,,,,,,,,,,,,,,,,,,,,,,,,,,,,,,,,,,,,,,,,,,,
,,,,,,,,,,,,,,,,,,,,,,,,,,,,,,,,,,,,,,,,,,,59858eab7678a6000110e4d6,5fe19205d71cab4173dc21f5,2020-12-22_07h28.31.583,FlowerSimilarity_Experiment,2020.1.2,Win32,60,5fe17d4a51f3a9c1a60f9869,,,,,,,,,,,,,,,,,,,4,FF,3,6,3.453,97,40,1,0,0,response1disk_5,-15,10,1,0,0,rectangle_8,-15,10,1,0,0,,,0,-15,10,1,0,0,,0,6,6,5,1,,,,,,,,,,,,,,,,,,,,,,,,,,,,,,,,,,,,,,,,,,,,,,,,,,,,,,,,,
,,,,,,,,,,,,,,,,,,,,,,,,,,,,,,,,,,,,,,,,,,,59858eab7678a6000110e4d6,5fe19205d71cab4173dc21f5,2020-12-22_07h28.31.583,FlowerSimilarity_Experiment,2020.1.2,Win32,60,5fe17d4a51f3a9c1a60f9869,,,,,,,,,,,,,,,,,,,4,PF,,5,6.012,,,,,,,,,,,,,,,,,,,,,,,,,,,,,,,,space,4.204,73,-42,1,0,0,response3disk,3,1,26,11,1,0,0,rectangle,26,11,1,0,0,,1,"[93,322,36,175,207,263,291,182,199,75,171,21,282,8,139,185,153,194,121,6]",26,11,1,0,0,0,0,0,89,1,,,,,,,,,,,,,,,,,,,,,,,
,,,,,,,,,,,,,,,,,,,,,,,,,,,,,,,,,,,,,,,,,,,59858eab7678a6000110e4d6,5fe19205d71cab4173dc21f5,2020-12-22_07h28.31.583,FlowerSimilarity_Experiment,2020.1.2,Win32,60,5fe17d4a51f3a9c1a60f9869,,,,,,,,,,,,,,,,,,,4,PF,,3,1.949,,,,,,,,,,,,,,,,,,,,,,,,,,,,,,,,,,-63,-98,1,0,0,response5disk,2,2,-1,-2,1,0,0,rectangle,-1,-2,1,0,0,,5,"[93,322,36,175,207,263,291,182,199,75,171,21,282,8,139,185,153,194,121,6]",-1,-2,1,0,0,0,1,1,108,1,,,,,,,,,,,,,,,,,,,,,,,
,,,,,,,,,,,,,,,,,,,,,,,,,,,,,,,,,,,,,,,,,,,59858eab7678a6000110e4d6,5fe19205d71cab4173dc21f5,2020-12-22_07h28.31.583,FlowerSimilarity_Experiment,2020.1.2,Win32,60,5fe17d4a51f3a9c1a60f9869,,,,,,,,,,,,,,,,,,,4,FF,,7,1.387,,,,,,,,,,,,,,,,,,,,,,,,,,,,,,,,,,54,114,1,0,0,response1disk,5,3,15,0,1,0,0,rectangle,15,0,1,0,0,,5,"[93,322,36,175,207,263,291,182,199,75,171,21,282,8,139,185,153,194,121,6]",15,0,1,0,0,0,2,2,116,1,,,,,,,,,,,,,,,,,,,,,,,
,,,,,,,,,,,,,,,,,,,,,,,,,,,,,,,,,,,,,,,,,,,59858eab7678a6000110e4d6,5fe19205d71cab4173dc21f5,2020-12-22_07h28.31.583,FlowerSimilarity_Experiment,2020.1.2,Win32,60,5fe17d4a51f3a9c1a60f9869,,,,,,,,,,,,,,,,,,,4,PF,,5,1.607,,,,,,,,,,,,,,,,,,,,,,,,,,,,,,,,,,84,-40,1,0,0,response3disk,7,4,6,-2,1,0,0,rectangle,6,-2,1,0,0,,0,"[93,322,36,175,207,263,291,182,199,75,171,21,282,8,139,185,153,194,121,6]",6,-2,1,0,0,0,3,3,38,1,,,,,,,,,,,,,,,,,,,,,,,
,,,,,,,,,,,,,,,,,,,,,,,,,,,,,,,,,,,,,,,,,,,59858eab7678a6000110e4d6,5fe19205d71cab4173dc21f5,2020-12-22_07h28.31.583,FlowerSimilarity_Experiment,2020.1.2,Win32,60,5fe17d4a51f3a9c1a60f9869,,,,,,,,,,,,,,,,,,,9,PF,,2,1.551,,,,,,,,,,,,,,,,,,,,,,,,,,,,,,,,,,-106,-35,1,0,0,response5disk,6,5,-9,5,1,0,0,rectangle,-9,5,1,0,0,,4,"[93,322,36,175,207,263,291,182,199,75,171,21,282,8,139,185,153,194,121,6]",-9,5,1,0,0,0,4,4,148,1,,,,,,,,,,,,,,,,,,,,,,,
,,,,,,,,,,,,,,,,,,,,,,,,,,,,,,,,,,,,,,,,,,,59858eab7678a6000110e4d6,5fe19205d71cab4173dc21f5,2020-12-22_07h28.31.583,FlowerSimilarity_Experiment,2020.1.2,Win32,60,5fe17d4a51f3a9c1a60f9869,,,,,,,,,,,,,,,,,,,7,PF,,7,1.155,,,,,,,,,,,,,,,,,,,,,,,,,,,,,,,,,,49,115,1,0,0,response1disk,9,6,12,-3,1,0,0,rectangle,89,-46,1,0,0,5,5,"[93,322,36,175,207,263,291,182,199,75,171,21,282,8,139,185,153,194,121,6]",-17,6,1,0,0,0,5,5,10,1,response3disk_3,rectangle,,,,,,,,,,,,,,,,,,,,,
,,,,,,,,,,,,,,,,,,,,,,,,,,,,,,,,,,,,,,,,,,,59858eab7678a6000110e4d6,5fe19205d71cab4173dc21f5,2020-12-22_07h28.31.583,FlowerSimilarity_Experiment,2020.1.2,Win32,60,5fe17d4a51f3a9c1a60f9869,,,,,,,,,,,,,,,,,,,1,FF,,2,1.34,,,,,,,,,,,,,,,,,,,,,,,,,,,,,,,,,,-118,-51,1,0,0,response5disk,6,7,-15,3,1,0,0,rectangle,-15,3,1,0,0,5,5,"[93,322,36,175,207,263,291,182,199,75,171,21,282,8,139,185,153,194,121,6]",-15,3,1,0,0,0,6,6,58,1,,,,,,,,,,,,,,,,,,,,,,,
,,,,,,,,,,,,,,,,,,,,,,,,,,,,,,,,,,,,,,,,,,,59858eab7678a6000110e4d6,5fe19205d71cab4173dc21f5,2020-12-22_07h28.31.583,FlowerSimilarity_Experiment,2020.1.2,Win32,60,5fe17d4a51f3a9c1a60f9869,,,,,,,,,,,,,,,,,,,3,PF,,0,2.591,,,,,,,,,,,,,,,,,,,,,,,,,,,,,,,,,,-54,99,1,0,0,response7disk,7,8,-7,3,1,0,0,rectangle,-111,30,1,0,0,1,1,"[93,322,36,175,207,263,291,182,199,75,171,21,282,8,139,185,153,194,121,6]",-10,-5,1,0,0,0,7,7,41,1,response7disk_3,rectangle,,,,,,,,,,,,,,,,,,,,,
,,,,,,,,,,,,,,,,,,,,,,,,,,,,,,,,,,,,,,,,,,,59858eab7678a6000110e4d6,5fe19205d71cab4173dc21f5,2020-12-22_07h28.31.583,FlowerSimilarity_Experiment,2020.1.2,Win32,60,5fe17d4a51f3a9c1a60f9869,,,,,,,,,,,,,,,,,,,4,FF,,6,1.617,,,,,,,,,,,,,,,,,,,,,,,,,,,,,,,,,,89,30,1,0,0,response1disk,3,9,-10,2,1,0,0,rectangle,-10,2,1,0,0,1,1,"[93,322,36,175,207,263,291,182,199,75,171,21,282,8,139,185,153,194,121,6]",-10,2,1,0,0,0,8,8,77,1,,,,,,,,,,,,,,,,,,,,,,,
,,,,,,,,,,,,,,,,,,,,,,,,,,,,,,,,,,,,,,,,,,,59858eab7678a6000110e4d6,5fe19205d71cab4173dc21f5,2020-12-22_07h28.31.583,FlowerSimilarity_Experiment,2020.1.2,Win32,60,5fe17d4a51f3a9c1a60f9869,,,,,,,,,,,,,,,,,,,2,PF,,5,1.834,,,,,,,,,,,,,,,,,,,,,,,,,,,,,,,,,,97,-45,1,0,0,response3disk,3,10,12,-2,1,0,0,rectangle,12,-2,1,0,0,1,7,"[93,322,36,175,207,263,291,182,199,75,171,21,282,8,139,185,153,194,121,6]",12,-2,1,0,0,0,9,9,69,1,,,,,,,,,,,,,,,,,,,,,,,
,,,,,,,,,,,,,,,,,,,,,,,,,,,,,,,,,,,,,,,,,,,59858eab7678a6000110e4d6,5fe19205d71cab4173dc21f5,2020-12-22_07h28.31.583,FlowerSimilarity_Experiment,2020.1.2,Win32,60,5fe17d4a51f3a9c1a60f9869,,,,,,,,,,,,,,,,,,,8,FF,,5,1.335,,,,,,,,,,,,,,,,,,,,,,,,,,,,,,,,,,108,-66,1,0,0,response3disk,3,11,-6,3,1,0,0,rectangle,-6,3,1,0,0,1,1,"[93,322,36,175,207,263,291,182,199,75,171,21,282,8,139,185,153,194,121,6]",-6,3,1,0,0,0,10,10,154,1,,,,,,,,,,,,,,,,,,,,,,,
,,,,,,,,,,,,,,,,,,,,,,,,,,,,,,,,,,,,,,,,,,,59858eab7678a6000110e4d6,5fe19205d71cab4173dc21f5,2020-12-22_07h28.31.583,FlowerSimilarity_Experiment,2020.1.2,Win32,60,5fe17d4a51f3a9c1a60f9869,,,,,,,,,,,,,,,,,,,8,FF,,6,1.862,,,,,,,,,,,,,,,,,,,,,,,,,,,,,,,,,,82,43,1,0,0,response1disk,2,12,4,-2,1,0,0,rectangle,4,-2,1,0,0,1,1,"[93,322,36,175,207,263,291,182,199,75,171,21,282,8,139,185,153,194,121,6]",4,-2,1,0,0,0,11,11,22,1,,,,,,,,,,,,,,,,,,,,,,,
,,,,,,,,,,,,,,,,,,,,,,,,,,,,,,,,,,,,,,,,,,,59858eab7678a6000110e4d6,5fe19205d71cab4173dc21f5,2020-12-22_07h28.31.583,FlowerSimilarity_Experiment,2020.1.2,Win32,60,5fe17d4a51f3a9c1a60f9869,,,,,,,,,,,,,,,,,,,4,FF,,7,1.085,,,,,,,,,,,,,,,,,,,,,,,,,,,,,,,,,,36,99,1,0,0,response1disk,6,13,-22,3,1,0,0,rectangle,-22,3,1,0,0,1,5,"[93,322,36,175,207,263,291,182,199,75,171,21,282,8,139,185,153,194,121,6]",-22,3,1,0,0,0,12,12,122,1,,,,,,,,,,,,,,,,,,,,,,,
,,,,,,,,,,,,,,,,,,,,,,,,,,,,,,,,,,,,,,,,,,,59858eab7678a6000110e4d6,5fe19205d71cab4173dc21f5,2020-12-22_07h28.31.583,FlowerSimilarity_Experiment,2020.1.2,Win32,60,5fe17d4a51f3a9c1a60f9869,,,,,,,,,,,,,,,,,,,2,PF,,3,2.133,,,,,,,,,,,,,,,,,,,,,,,,,,,,,,,,,,-44,-102,1,0,0,response5disk,4,14,-14,-11,1,0,0,rectangle,-14,-11,1,0,0,1,3,"[93,322,36,175,207,263,291,182,199,75,171,21,282,8,139,185,153,194,121,6]",-14,-11,1,0,0,0,13,13,127,1,,,,,,,,,,,,,,,,,,,,,,,
,,,,,,,,,,,,,,,,,,,,,,,,,,,,,,,,,,,,,,,,,,,59858eab7678a6000110e4d6,5fe19205d71cab4173dc21f5,2020-12-22_07h28.31.583,FlowerSimilarity_Experiment,2020.1.2,Win32,60,5fe17d4a51f3a9c1a60f9869,,,,,,,,,,,,,,,,,,,8,PF,,4,1.921,,,,,,,,,,,,,,,,,,,,,,,,,,,,,,,,,,42,-94,1,0,0,response3disk,2,15,4,6,1,0,0,rectangle,4,6,1,0,0,1,5,"[93,322,36,175,207,263,291,182,199,75,171,21,282,8,139,185,153,194,121,6]",4,6,1,0,0,0,14,14,83,1,,,,,,,,,,,,,,,,,,,,,,,
,,,,,,,,,,,,,,,,,,,,,,,,,,,,,,,,,,,,,,,,,,,59858eab7678a6000110e4d6,5fe19205d71cab4173dc21f5,2020-12-22_07h28.31.583,FlowerSimilarity_Experiment,2020.1.2,Win32,60,5fe17d4a51f3a9c1a60f9869,,,,,,,,,,,,,,,,,,,6,FF,,7,1.919,,,,,,,,,,,,,,,,,,,,,,,,,,,,,,,,,,44,83,1,0,0,response1disk,8,16,2,8,1,0,0,rectangle,2,8,1,0,0,1,4,"[93,322,36,175,207,263,291,182,199,75,171,21,282,8,139,185,153,194,121,6]",2,8,1,0,0,0,15,15,133,1,,,,,,,,,,,,,,,,,,,,,,,
,,,,,,,,,,,,,,,,,,,,,,,,,,,,,,,,,,,,,,,,,,,59858eab7678a6000110e4d6,5fe19205d71cab4173dc21f5,2020-12-22_07h28.31.583,FlowerSimilarity_Experiment,2020.1.2,Win32,60,5fe17d4a51f3a9c1a60f9869,,,,,,,,,,,,,,,,,,,4,PF,,7,0.967,,,,,,,,,,,,,,,,,,,,,,,,,,,,,,,,,,30,91,1,0,0,response1disk,8,17,-1,3,1,0,0,rectangle,-1,3,1,0,0,1,0,"[93,322,36,175,207,263,291,182,199,75,171,21,282,8,139,185,153,194,121,6]",-1,3,1,0,0,0,16,16,124,1,,,,,,,,,,,,,,,,,,,,,,,
,,,,,,,,,,,,,,,,,,,,,,,,,,,,,,,,,,,,,,,,,,,59858eab7678a6000110e4d6,5fe19205d71cab4173dc21f5,2020-12-22_07h28.31.583,FlowerSimilarity_Experiment,2020.1.2,Win32,60,5fe17d4a51f3a9c1a60f9869,,,,,,,,,,,,,,,,,,,3,FF,,7,1.302,,,,,,,,,,,,,,,,,,,,,,,,,,,,,,,,,,36,78,1,0,0,response1disk,4,18,7,-2,1,0,0,rectangle,7,-2,1,0,0,1,5,"[93,322,36,175,207,263,291,182,199,75,171,21,282,8,139,185,153,194,121,6]",7,-2,1,0,0,0,17,17,110,1,,,,,,,,,,,,,,,,,,,,,,,
,,,,,,,,,,,,,,,,,,,,,,,,,,,,,,,,,,,,,,,,,,,59858eab7678a6000110e4d6,5fe19205d71cab4173dc21f5,2020-12-22_07h28.31.583,FlowerSimilarity_Experiment,2020.1.2,Win32,60,5fe17d4a51f3a9c1a60f9869,,,,,,,,,,,,,,,,,,,1,FF,,6,1.449,,,,,,,,,,,,,,,,,,,,,,,,,,,,,,,,,,97,38,1,0,0,response1disk,5,19,14,-8,1,0,0,rectangle,14,-8,1,0,0,1,2,"[93,322,36,175,207,263,291,182,199,75,171,21,282,8,139,185,153,194,121,6]",14,-8,1,0,0,0,18,18,82,1,,,,,,,,,,,,,,,,,,,,,,,
,,,,,,,,,,,,,,,,,,,,,,,,,,,,,,,,,,,,,,,,,,,59858eab7678a6000110e4d6,5fe19205d71cab4173dc21f5,2020-12-22_07h28.31.583,FlowerSimilarity_Experiment,2020.1.2,Win32,60,5fe17d4a51f3a9c1a60f9869,,,,,,,,,,,,,,,,,,,6,PF,,7,1.016,,,,,,,,,,,,,,,,,,,,,,,,,,,,,,,,,,41,114,1,0,0,response1disk,4,20,-4,-3,1,0,0,rectangle,-4,-3,1,0,0,1,2,"[93,322,36,175,207,263,291,182,199,75,171,21,282,8,139,185,153,194,121,6]",-4,-3,1,0,0,0,19,19,33,1,,,,,,,,,,,,,,,,,,,,,,,
,,,,,,,,,,,,,,,,,,,,,,,,,,,,,,,,,,,,,,,,,,,59858eab7678a6000110e4d6,5fe19205d71cab4173dc21f5,2020-12-22_07h28.31.583,FlowerSimilarity_Experiment,2020.1.2,Win32,60,5fe17d4a51f3a9c1a60f9869,,,,,,,,,,,,,,,,,,,6,FF,,3,1.254,,,,,,,,,,,,,,,,,,,,,,,,,,,,,,,,,,-49,-109,1,0,0,response5disk,9,21,1,6,1,0,0,rectangle,74,-45,1,0,0,5,5,"[93,322,36,175,207,263,291,182,199,75,171,21,282,8,139,185,153,194,121,6]",-2,10,1,0,0,0,20,20,160,1,response3disk_3,rectangle,,,,,,,,,,,,,,,,,,,,,
,,,,,,,,,,,,,,,,,,,,,,,,,,,,,,,,,,,,,,,,,,,59858eab7678a6000110e4d6,5fe19205d71cab4173dc21f5,2020-12-22_07h28.31.583,FlowerSimilarity_Experiment,2020.1.2,Win32,60,5fe17d4a51f3a9c1a60f9869,,,,,,,,,,,,,,,,,,,3,PF,,7,1.043,,,,,,,,,,,,,,,,,,,,,,,,,,,,,,,,,,38,93,1,0,0,response1disk,6,22,10,0,1,0,0,rectangle,10,0,1,0,0,5,5,"[93,322,36,175,207,263,291,182,199,75,171,21,282,8,139,185,153,194,121,6]",10,0,1,0,0,0,21,21,47,1,,,,,,,,,,,,,,,,,,,,,,,
,,,,,,,,,,,,,,,,,,,,,,,,,,,,,,,,,,,,,,,,,,,59858eab7678a6000110e4d6,5fe19205d71cab4173dc21f5,2020-12-22_07h28.31.583,FlowerSimilarity_Experiment,2020.1.2,Win32,60,5fe17d4a51f3a9c1a60f9869,,,,,,,,,,,,,,,,,,,9,PF,,7,1.934,,,,,,,,,,,,,,,,,,,,,,,,,,,,,,,,,,39,85,1,0,0,response1disk,2,23,2,5,1,0,0,rectangle,2,5,1,0,0,5,3,"[93,322,36,175,207,263,291,182,199,75,171,21,282,8,139,185,153,194,121,6]",2,5,1,0,0,0,22,22,157,1,,,,,,,,,,,,,,,,,,,,,,,
,,,,,,,,,,,,,,,,,,,,,,,,,,,,,,,,,,,,,,,,,,,59858eab7678a6000110e4d6,5fe19205d71cab4173dc21f5,2020-12-22_07h28.31.583,FlowerSimilarity_Experiment,2020.1.2,Win32,60,5fe17d4a51f3a9c1a60f9869,,,,,,,,,,,,,,,,,,,7,FF,,5,1.25,,,,,,,,,,,,,,,,,,,,,,,,,,,,,,,,,,70,-30,1,0,0,response3disk,1,24,9,-8,1,0,0,rectangle,9,-8,1,0,0,5,3,"[93,322,36,175,207,263,291,182,199,75,171,21,282,8,139,185,153,194,121,6]",9,-8,1,0,0,0,23,23,132,1,,,,,,,,,,,,,,,,,,,,,,,
,,,,,,,,,,,,,,,,,,,,,,,,,,,,,,,,,,,,,,,,,,,59858eab7678a6000110e4d6,5fe19205d71cab4173dc21f5,2020-12-22_07h28.31.583,FlowerSimilarity_Experiment,2020.1.2,Win32,60,5fe17d4a51f3a9c1a60f9869,,,,,,,,,,,,,,,,,,,4,FF,,4,1.985,,,,,,,,,,,,,,,,,,,,,,,,,,,,,,,,,,17,-101,1,0,0,response3disk,7,25,-12,14,1,0,0,rectangle,-12,14,1,0,0,5,7,"[93,322,36,175,207,263,291,182,199,75,171,21,282,8,139,185,153,194,121,6]",-12,14,1,0,0,0,24,24,87,1,,,,,,,,,,,,,,,,,,,,,,,
,,,,,,,,,,,,,,,,,,,,,,,,,,,,,,,,,,,,,,,,,,,59858eab7678a6000110e4d6,5fe19205d71cab4173dc21f5,2020-12-22_07h28.31.583,FlowerSimilarity_Experiment,2020.1.2,Win32,60,5fe17d4a51f3a9c1a60f9869,,,,,,,,,,,,,,,,,,,3,PF,,6,1.258,,,,,,,,,,,,,,,,,,,,,,,,,,,,,,,,,,97,34,1,0,0,response1disk,8,26,-2,14,1,0,0,rectangle,-2,14,1,0,0,5,4,"[93,322,36,175,207,263,291,182,199,75,171,21,282,8,139,185,153,194,121,6]",-2,14,1,0,0,0,25,25,3,1,,,,,,,,,,,,,,,,,,,,,,,
,,,,,,,,,,,,,,,,,,,,,,,,,,,,,,,,,,,,,,,,,,,59858eab7678a6000110e4d6,5fe19205d71cab4173dc21f5,2020-12-22_07h28.31.583,FlowerSimilarity_Experiment,2020.1.2,Win32,60,5fe17d4a51f3a9c1a60f9869,,,,,,,,,,,,,,,,,,,5,PF,,6,1.516,,,,,,,,,,,,,,,,,,,,,,,,,,,,,,,,,,103,35,1,0,0,response1disk,6,27,-10,2,1,0,0,rectangle,-10,2,1,0,0,5,4,"[93,322,36,175,207,263,291,182,199,75,171,21,282,8,139,185,153,194,121,6]",-10,2,1,0,0,0,26,26,103,1,,,,,,,,,,,,,,,,,,,,,,,
,,,,,,,,,,,,,,,,,,,,,,,,,,,,,,,,,,,,,,,,,,,59858eab7678a6000110e4d6,5fe19205d71cab4173dc21f5,2020-12-22_07h28.31.583,FlowerSimilarity_Experiment,2020.1.2,Win32,60,5fe17d4a51f3a9c1a60f9869,,,,,,,,,,,,,,,,,,,8,FF,,2,1.251,,,,,,,,,,,,,,,,,,,,,,,,,,,,,,,,,,-74,-54,1,0,0,response5disk,5,28,15,-8,1,0,0,rectangle,15,-8,1,0,0,5,4,"[93,322,36,175,207,263,291,182,199,75,171,21,282,8,139,185,153,194,121,6]",15,-8,1,0,0,0,27,27,152,1,,,,,,,,,,,,,,,,,,,,,,,
,,,,,,,,,,,,,,,,,,,,,,,,,,,,,,,,,,,,,,,,,,,59858eab7678a6000110e4d6,5fe19205d71cab4173dc21f5,2020-12-22_07h28.31.583,FlowerSimilarity_Experiment,2020.1.2,Win32,60,5fe17d4a51f3a9c1a60f9869,,,,,,,,,,,,,,,,,,,4,FF,,1,1.452,,,,,,,,,,,,,,,,,,,,,,,,,,,,,,,,,,-76,48,1,0,0,response7disk,4,29,-7,-2,1,0,0,rectangle,-7,-2,1,0,0,5,5,"[93,322,36,175,207,263,291,182,199,75,171,21,282,8,139,185,153,194,121,6]",-7,-2,1,0,0,0,28,28,84,1,,,,,,,,,,,,,,,,,,,,,,,
,,,,,,,,,,,,,,,,,,,,,,,,,,,,,,,,,,,,,,,,,,,59858eab7678a6000110e4d6,5fe19205d71cab4173dc21f5,2020-12-22_07h28.31.583,FlowerSimilarity_Experiment,2020.1.2,Win32,60,5fe17d4a51f3a9c1a60f9869,,,,,,,,,,,,,,,,,,,6,FF,,7,1.201,,,,,,,,,,,,,,,,,,,,,,,,,,,,,,,,,,25,98,1,0,0,response1disk,4,30,-2,13,1,0,0,rectangle,-2,13,1,0,0,5,3,"[93,322,36,175,207,263,291,182,199,75,171,21,282,8,139,185,153,194,121,6]",-2,13,1,0,0,0,29,29,56,1,,,,,,,,,,,,,,,,,,,,,,,
,,,,,,,,,,,,,,,,,,,,,,,,,,,,,,,,,,,,,,,,,,,59858eab7678a6000110e4d6,5fe19205d71cab4173dc21f5,2020-12-22_07h28.31.583,FlowerSimilarity_Experiment,2020.1.2,Win32,60,5fe17d4a51f3a9c1a60f9869,,,,,,,,,,,,,,,,,,,9,PF,,7,1.035,,,,,,,,,,,,,,,,,,,,,,,,,,,,,,,,,,34,117,1,0,0,response1disk,4,31,-15,10,1,0,0,rectangle,-15,10,1,0,0,5,1,"[93,322,36,175,207,263,291,182,199,75,171,21,282,8,139,185,153,194,121,6]",-15,10,1,0,0,0,30,30,114,1,,,,,,,,,,,,,,,,,,,,,,,
,,,,,,,,,,,,,,,,,,,,,,,,,,,,,,,,,,,,,,,,,,,59858eab7678a6000110e4d6,5fe19205d71cab4173dc21f5,2020-12-22_07h28.31.583,FlowerSimilarity_Experiment,2020.1.2,Win32,60,5fe17d4a51f3a9c1a60f9869,,,,,,,,,,,,,,,,,,,2,FF,,6,1.271,,,,,,,,,,,,,,,,,,,,,,,,,,,,,,,,,,114,29,1,0,0,response1disk,3,32,12,5,1,0,0,rectangle,12,5,1,0,0,5,1,"[93,322,36,175,207,263,291,182,199,75,171,21,282,8,139,185,153,194,121,6]",12,5,1,0,0,0,31,31,104,1,,,,,,,,,,,,,,,,,,,,,,,
,,,,,,,,,,,,,,,,,,,,,,,,,,,,,,,,,,,,,,,,,,,59858eab7678a6000110e4d6,5fe19205d71cab4173dc21f5,2020-12-22_07h28.31.583,FlowerSimilarity_Experiment,2020.1.2,Win32,60,5fe17d4a51f3a9c1a60f9869,,,,,,,,,,,,,,,,,,,3,PF,,5,1.232,,,,,,,,,,,,,,,,,,,,,,,,,,,,,,,,,,94,-53,1,0,0,response3disk,3,33,-9,-8,1,0,0,rectangle,-9,-8,1,0,0,5,2,"[93,322,36,175,207,263,291,182,199,75,171,21,282,8,139,185,153,194,121,6]",-9,-8,1,0,0,0,32,32,4,1,,,,,,,,,,,,,,,,,,,,,,,
,,,,,,,,,,,,,,,,,,,,,,,,,,,,,,,,,,,,,,,,,,,59858eab7678a6000110e4d6,5fe19205d71cab4173dc21f5,2020-12-22_07h28.31.583,FlowerSimilarity_Experiment,2020.1.2,Win32,60,5fe17d4a51f3a9c1a60f9869,,,,,,,,,,,,,,,,,,,3,FF,,6,1.662,,,,,,,,,,,,,,,,,,,,,,,,,,,,,,,,,,90,59,1,0,0,response1disk,2,34,6,-8,1,0,0,rectangle,6,-8,1,0,0,5,2,"[93,322,36,175,207,263,291,182,199,75,171,21,282,8,139,185,153,194,121,6]",6,-8,1,0,0,0,33,33,93,1,,,,,,,,,,,,,,,,,,,,,,,
,,,,,,,,,,,,,,,,,,,,,,,,,,,,,,,,,,,,,,,,,,,59858eab7678a6000110e4d6,5fe19205d71cab4173dc21f5,2020-12-22_07h28.31.583,FlowerSimilarity_Experiment,2020.1.2,Win32,60,5fe17d4a51f3a9c1a60f9869,,,,,,,,,,,,,,,,,,,2,PF,,7,2.318,,,,,,,,,,,,,,,,,,,,,,,,,,,,,,,,,,50,77,1,0,0,response1disk,6,35,-4,16,1,0,0,rectangle,-4,16,1,0,0,5,4,"[93,322,36,175,207,263,291,182,199,75,171,21,282,8,139,185,153,194,121,6]",-4,16,1,0,0,0,34,34,113,1,,,,,,,,,,,,,,,,,,,,,,,
,,,,,,,,,,,,,,,,,,,,,,,,,,,,,,,,,,,,,,,,,,,59858eab7678a6000110e4d6,5fe19205d71cab4173dc21f5,2020-12-22_07h28.31.583,FlowerSimilarity_Experiment,2020.1.2,Win32,60,5fe17d4a51f3a9c1a60f9869,,,,,,,,,,,,,,,,,,,7,FF,,2,1.166,,,,,,,,,,,,,,,,,,,,,,,,,,,,,,,,,,-94,-48,1,0,0,response5disk,3,36,-4,0,1,0,0,rectangle,-62,109,1,0,0,0,0,"[93,322,36,175,207,263,291,182,199,75,171,21,282,8,139,185,153,194,121,6]",-12,-3,1,0,0,0,35,35,73,1,response7disk_3,rectangle,,,,,,,,,,,,,,,,,,,,,
,,,,,,,,,,,,,,,,,,,,,,,,,,,,,,,,,,,,,,,,,,,59858eab7678a6000110e4d6,5fe19205d71cab4173dc21f5,2020-12-22_07h28.31.583,FlowerSimilarity_Experiment,2020.1.2,Win32,60,5fe17d4a51f3a9c1a60f9869,,,,,,,,,,,,,,,,,,,8,FF,,6,1.291,,,,,,,,,,,,,,,,,,,,,,,,,,,,,,,,,,106,42,1,0,0,response1disk,6,37,-14,6,1,0,0,rectangle,-14,6,1,0,0,0,3,"[93,322,36,175,207,263,291,182,199,75,171,21,282,8,139,185,153,194,121,6]",-14,6,1,0,0,0,36,36,37,1,,,,,,,,,,,,,,,,,,,,,,,
,,,,,,,,,,,,,,,,,,,,,,,,,,,,,,,,,,,,,,,,,,,59858eab7678a6000110e4d6,5fe19205d71cab4173dc21f5,2020-12-22_07h28.31.583,FlowerSimilarity_Experiment,2020.1.2,Win32,60,5fe17d4a51f3a9c1a60f9869,,,,,,,,,,,,,,,,,,,6,FF,,2,1.3,,,,,,,,,,,,,,,,,,,,,,,,,,,,,,,,,,-81,-59,1,0,0,response5disk,1,38,1,0,1,0,0,rectangle,1,0,1,0,0,0,2,"[93,322,36,175,207,263,291,182,199,75,171,21,282,8,139,185,153,194,121,6]",1,0,1,0,0,0,37,37,5,1,,,,,,,,,,,,,,,,,,,,,,,
,,,,,,,,,,,,,,,,,,,,,,,,,,,,,,,,,,,,,,,,,,,59858eab7678a6000110e4d6,5fe19205d71cab4173dc21f5,2020-12-22_07h28.31.583,FlowerSimilarity_Experiment,2020.1.2,Win32,60,5fe17d4a51f3a9c1a60f9869,,,,,,,,,,,,,,,,,,,1,PF,,6,1.312,,,,,,,,,,,,,,,,,,,,,,,,,,,,,,,,,,89,86,1,0,0,response1disk,8,39,-2,5,1,0,0,rectangle,-2,5,1,0,0,0,0,"[93,322,36,175,207,263,291,182,199,75,171,21,282,8,139,185,153,194,121,6]",-2,5,1,0,0,0,38,38,65,1,,,,,,,,,,,,,,,,,,,,,,,
,,,,,,,,,,,,,,,,,,,,,,,,,,,,,,,,,,,,,,,,,,,59858eab7678a6000110e4d6,5fe19205d71cab4173dc21f5,2020-12-22_07h28.31.583,FlowerSimilarity_Experiment,2020.1.2,Win32,60,5fe17d4a51f3a9c1a60f9869,,,,,,,,,,,,,,,,,,,5,PF,,7,1.067,,,,,,,,,,,,,,,,,,,,,,,,,,,,,,,,,,38,120,1,0,0,response1disk,1,40,-9,-2,1,0,0,rectangle,-9,-2,1,0,0,0,1,"[93,322,36,175,207,263,291,182,199,75,171,21,282,8,139,185,153,194,121,6]",-9,-2,1,0,0,0,39,39,159,1,,,,,,,,,,,,,,,,,,,,,,,
,,,,,,,,,,,,,,,,,,,,,,,,,,,,,,,,,,,,,,,,,,,59858eab7678a6000110e4d6,5fe19205d71cab4173dc21f5,2020-12-22_07h28.31.583,FlowerSimilarity_Experiment,2020.1.2,Win32,60,5fe17d4a51f3a9c1a60f9869,,,,,,,,,,,,,,,,,,,7,FF,,0,1.136,,,,,,,,,,,,,,,,,,,,,,,,,,,,,,,,,,-74,112,1,0,0,response7disk,7,41,-12,3,1,0,0,rectangle,-12,3,1,0,0,0,7,"[93,322,36,175,207,263,291,182,199,75,171,21,282,8,139,185,153,194,121,6]",-12,3,1,0,0,0,40,40,34,1,,,,,,,,,,,,,,,,,,,,,,,
,,,,,,,,,,,,,,,,,,,,,,,,,,,,,,,,,,,,,,,,,,,59858eab7678a6000110e4d6,5fe19205d71cab4173dc21f5,2020-12-22_07h28.31.583,FlowerSimilarity_Experiment,2020.1.2,Win32,60,5fe17d4a51f3a9c1a60f9869,,,,,,,,,,,,,,,,,,,3,PF,,2,1.65,,,,,,,,,,,,,,,,,,,,,,,,,,,,,,,,,,-89,-45,1,0,0,response5disk,2,42,-1,-3,1,0,0,rectangle,-1,-3,1,0,0,0,2,"[93,322,36,175,207,263,291,182,199,75,171,21,282,8,139,185,153,194,121,6]",-1,-3,1,0,0,0,41,41,36,1,,,,,,,,,,,,,,,,,,,,,,,
,,,,,,,,,,,,,,,,,,,,,,,,,,,,,,,,,,,,,,,,,,,59858eab7678a6000110e4d6,5fe19205d71cab4173dc21f5,2020-12-22_07h28.31.583,FlowerSimilarity_Experiment,2020.1.2,Win32,60,5fe17d4a51f3a9c1a60f9869,,,,,,,,,,,,,,,,,,,4,PF,,6,2.399,,,,,,,,,,,,,,,,,,,,,,,,,,,,,,,,,,102,50,1,0,0,response1disk,9,43,-9,8,1,0,0,rectangle,-9,8,1,0,0,0,3,"[93,322,36,175,207,263,291,182,199,75,171,21,282,8,139,185,153,194,121,6]",-9,8,1,0,0,0,42,42,75,1,,,,,,,,,,,,,,,,,,,,,,,
,,,,,,,,,,,,,,,,,,,,,,,,,,,,,,,,,,,,,,,,,,,59858eab7678a6000110e4d6,5fe19205d71cab4173dc21f5,2020-12-22_07h28.31.583,FlowerSimilarity_Experiment,2020.1.2,Win32,60,5fe17d4a51f3a9c1a60f9869,,,,,,,,,,,,,,,,,,,5,PF,,1,2.935,,,,,,,,,,,,,,,,,,,,,,,,,,,,,,,,,,-106,43,1,0,0,response7disk,5,44,-14,5,1,0,0,rectangle,-14,5,1,0,0,0,0,"[93,322,36,175,207,263,291,182,199,75,171,21,282,8,139,185,153,194,121,6]",-14,5,1,0,0,0,43,43,94,1,,,,,,,,,,,,,,,,,,,,,,,
,,,,,,,,,,,,,,,,,,,,,,,,,,,,,,,,,,,,,,,,,,,59858eab7678a6000110e4d6,5fe19205d71cab4173dc21f5,2020-12-22_07h28.31.583,FlowerSimilarity_Experiment,2020.1.2,Win32,60,5fe17d4a51f3a9c1a60f9869,,,,,,,,,,,,,,,,,,,6,PF,,7,1.133,,,,,,,,,,,,,,,,,,,,,,,,,,,,,,,,,,46,112,1,0,0,response1disk,2,45,-4,13,1,0,0,rectangle,-4,13,1,0,0,0,1,"[93,322,36,175,207,263,291,182,199,75,171,21,282,8,139,185,153,194,121,6]",-4,13,1,0,0,0,44,44,130,1,,,,,,,,,,,,,,,,,,,,,,,
,,,,,,,,,,,,,,,,,,,,,,,,,,,,,,,,,,,,,,,,,,,59858eab7678a6000110e4d6,5fe19205d71cab4173dc21f5,2020-12-22_07h28.31.583,FlowerSimilarity_Experiment,2020.1.2,Win32,60,5fe17d4a51f3a9c1a60f9869,,,,,,,,,,,,,,,,,,,1,FF,,6,2.226,,,,,,,,,,,,,,,,,,,,,,,,,,,,,,,,,,90,32,1,0,0,response1disk,7,46,9,10,1,0,0,rectangle,9,10,1,0,0,0,5,"[93,322,36,175,207,263,291,182,199,75,171,21,282,8,139,185,153,194,121,6]",9,10,1,0,0,0,45,45,137,1,,,,,,,,,,,,,,,,,,,,,,,
,,,,,,,,,,,,,,,,,,,,,,,,,,,,,,,,,,,,,,,,,,,59858eab7678a6000110e4d6,5fe19205d71cab4173dc21f5,2020-12-22_07h28.31.583,FlowerSimilarity_Experiment,2020.1.2,Win32,60,5fe17d4a51f3a9c1a60f9869,,,,,,,,,,,,,,,,,,,8,FF,,7,2.902,,,,,,,,,,,,,,,,,,,,,,,,,,,,,,,,,,47,98,1,0,0,response1disk,9,47,6,-5,1,0,0,rectangle,6,-5,1,0,0,0,1,"[93,322,36,175,207,263,291,182,199,75,171,21,282,8,139,185,153,194,121,6]",6,-5,1,0,0,0,46,46,105,1,,,,,,,,,,,,,,,,,,,,,,,
,,,,,,,,,,,,,,,,,,,,,,,,,,,,,,,,,,,,,,,,,,,59858eab7678a6000110e4d6,5fe19205d71cab4173dc21f5,2020-12-22_07h28.31.583,FlowerSimilarity_Experiment,2020.1.2,Win32,60,5fe17d4a51f3a9c1a60f9869,,,,,,,,,,,,,,,,,,,9,PF,,7,0.979,,,,,,,,,,,,,,,,,,,,,,,,,,,,,,,,,,42,102,1,0,0,response1disk,7,48,-7,6,1,0,0,rectangle,-7,6,1,0,0,0,4,"[93,322,36,175,207,263,291,182,199,75,171,21,282,8,139,185,153,194,121,6]",-7,6,1,0,0,0,47,47,121,1,,,,,,,,,,,,,,,,,,,,,,,
,,,,,,,,,,,,,,,,,,,,,,,,,,,,,,,,,,,,,,,,,,,59858eab7678a6000110e4d6,5fe19205d71cab4173dc21f5,2020-12-22_07h28.31.583,FlowerSimilarity_Experiment,2020.1.2,Win32,60,5fe17d4a51f3a9c1a60f9869,,,,,,,,,,,,,,,,,,,1,PF,,7,1.226,,,,,,,,,,,,,,,,,,,,,,,,,,,,,,,,,,44,94,1,0,0,response1disk,7,49,-2,8,1,0,0,rectangle,-2,8,1,0,0,0,7,"[93,322,36,175,207,263,291,182,199,75,171,21,282,8,139,185,153,194,121,6]",-2,8,1,0,0,0,48,48,150,1,,,,,,,,,,,,,,,,,,,,,,,
,,,,,,,,,,,,,,,,,,,,,,,,,,,,,,,,,,,,,,,,,,,59858eab7678a6000110e4d6,5fe19205d71cab4173dc21f5,2020-12-22_07h28.31.583,FlowerSimilarity_Experiment,2020.1.2,Win32,60,5fe17d4a51f3a9c1a60f9869,,,,,,,,,,,,,,,,,,,1,PF,,6,3.646,,,,,,,,,,,,,,,,,,,,,,,,,,,,,,,,,,110,43,1,0,0,response1disk,2,50,12,2,1,0,0,rectangle,12,2,1,0,0,0,4,"[93,322,36,175,207,263,291,182,199,75,171,21,282,8,139,185,153,194,121,6]",12,2,1,0,0,0,49,49,24,1,,,,,,,,,,,,,,,,,,,,,,,
,,,,,,,,,,,,,,,,,,,,,,,,,,,,,,,,,,,,,,,,,,,59858eab7678a6000110e4d6,5fe19205d71cab4173dc21f5,2020-12-22_07h28.31.583,FlowerSimilarity_Experiment,2020.1.2,Win32,60,5fe17d4a51f3a9c1a60f9869,,,,,,,,,,,,,,,,,,,2,PF,,0,0.995,,,,,,,,,,,,,,,,,,,,,,,,,,,,,,,,,,-62,112,1,0,0,response7disk,2,51,-2,0,1,0,0,rectangle,-2,0,1,0,0,0,0,"[93,322,36,175,207,263,291,182,199,75,171,21,282,8,139,185,153,194,121,6]",-2,0,1,0,0,0,50,50,14,1,,,,,,,,,,,,,,,,,,,,,,,
,,,,,,,,,,,,,,,,,,,,,,,,,,,,,,,,,,,,,,,,,,,59858eab7678a6000110e4d6,5fe19205d71cab4173dc21f5,2020-12-22_07h28.31.583,FlowerSimilarity_Experiment,2020.1.2,Win32,60,5fe17d4a51f3a9c1a60f9869,,,,,,,,,,,,,,,,,,,3,PF,,2,1.509,,,,,,,,,,,,,,,,,,,,,,,,,,,,,,,,,,-87,-35,1,0,0,response5disk,4,52,2,-3,1,0,0,rectangle,2,-3,1,0,0,0,1,"[93,322,36,175,207,263,291,182,199,75,171,21,282,8,139,185,153,194,121,6]",2,-3,1,0,0,0,51,51,30,1,,,,,,,,,,,,,,,,,,,,,,,
,,,,,,,,,,,,,,,,,,,,,,,,,,,,,,,,,,,,,,,,,,,59858eab7678a6000110e4d6,5fe19205d71cab4173dc21f5,2020-12-22_07h28.31.583,FlowerSimilarity_Experiment,2020.1.2,Win32,60,5fe17d4a51f3a9c1a60f9869,,,,,,,,,,,,,,,,,,,5,FF,,4,2,,,,,,,,,,,,,,,,,,,,,,,,,,,,,,,,,,36,-80,1,0,0,response3disk,7,53,1,-10,1,0,0,rectangle,1,-10,1,0,0,0,3,"[93,322,36,175,207,263,291,182,199,75,171,21,282,8,139,185,153,194,121,6]",1,-10,1,0,0,0,52,52,7,1,,,,,,,,,,,,,,,,,,,,,,,
,,,,,,,,,,,,,,,,,,,,,,,,,,,,,,,,,,,,,,,,,,,59858eab7678a6000110e4d6,5fe19205d71cab4173dc21f5,2020-12-22_07h28.31.583,FlowerSimilarity_Experiment,2020.1.2,Win32,60,5fe17d4a51f3a9c1a60f9869,,,,,,,,,,,,,,,,,,,7,PF,,4,1.516,,,,,,,,,,,,,,,,,,,,,,,,,,,,,,,,,,34,-70,1,0,0,response3disk,4,54,-7,2,1,0,0,rectangle,-7,2,1,0,0,0,1,"[93,322,36,175,207,263,291,182,199,75,171,21,282,8,139,185,153,194,121,6]",-7,2,1,0,0,0,53,53,43,1,,,,,,,,,,,,,,,,,,,,,,,
,,,,,,,,,,,,,,,,,,,,,,,,,,,,,,,,,,,,,,,,,,,59858eab7678a6000110e4d6,5fe19205d71cab4173dc21f5,2020-12-22_07h28.31.583,FlowerSimilarity_Experiment,2020.1.2,Win32,60,5fe17d4a51f3a9c1a60f9869,,,,,,,,,,,,,,,,,,,5,PF,,4,2.131,,,,,,,,,,,,,,,,,,,,,,,,,,,,,,,,,,34,-69,1,0,0,response3disk,3,55,-1,5,1,0,0,rectangle,-1,5,1,0,0,0,1,"[93,322,36,175,207,263,291,182,199,75,171,21,282,8,139,185,153,194,121,6]",-1,5,1,0,0,0,54,54,109,1,,,,,,,,,,,,,,,,,,,,,,,
,,,,,,,,,,,,,,,,,,,,,,,,,,,,,,,,,,,,,,,,,,,59858eab7678a6000110e4d6,5fe19205d71cab4173dc21f5,2020-12-22_07h28.31.583,FlowerSimilarity_Experiment,2020.1.2,Win32,60,5fe17d4a51f3a9c1a60f9869,,,,,,,,,,,,,,,,,,,7,PF,,4,3.601,,,,,,,,,,,,,,,,,,,,,,,,,,,,,,,,,,36,-90,1,0,0,response3disk,2,56,-12,0,1,0,0,rectangle,-12,0,1,0,0,0,3,"[93,322,36,175,207,263,291,182,199,75,171,21,282,8,139,185,153,194,121,6]",-12,0,1,0,0,0,55,55,32,1,,,,,,,,,,,,,,,,,,,,,,,
,,,,,,,,,,,,,,,,,,,,,,,,,,,,,,,,,,,,,,,,,,,59858eab7678a6000110e4d6,5fe19205d71cab4173dc21f5,2020-12-22_07h28.31.583,FlowerSimilarity_Experiment,2020.1.2,Win32,60,5fe17d4a51f3a9c1a60f9869,,,,,,,,,,,,,,,,,,,9,FF,,7,1.148,,,,,,,,,,,,,,,,,,,,,,,,,,,,,,,,,,25,88,1,0,0,response1disk,2,57,-7,11,1,0,0,rectangle,-7,11,1,0,0,0,5,"[93,322,36,175,207,263,291,182,199,75,171,21,282,8,139,185,153,194,121,6]",-7,11,1,0,0,0,56,56,11,1,,,,,,,,,,,,,,,,,,,,,,,
,,,,,,,,,,,,,,,,,,,,,,,,,,,,,,,,,,,,,,,,,,,59858eab7678a6000110e4d6,5fe19205d71cab4173dc21f5,2020-12-22_07h28.31.583,FlowerSimilarity_Experiment,2020.1.2,Win32,60,5fe17d4a51f3a9c1a60f9869,,,,,,,,,,,,,,,,,,,5,FF,,5,3.806,,,,,,,,,,,,,,,,,,,,,,,,,,,,,,,,,,87,-35,1,0,0,response3disk,6,58,10,-3,1,0,0,rectangle,10,-3,1,0,0,0,1,"[93,322,36,175,207,263,291,182,199,75,171,21,282,8,139,185,153,194,121,6]",10,-3,1,0,0,0,57,57,12,1,,,,,,,,,,,,,,,,,,,,,,,
,,,,,,,,,,,,,,,,,,,,,,,,,,,,,,,,,,,,,,,,,,,59858eab7678a6000110e4d6,5fe19205d71cab4173dc21f5,2020-12-22_07h28.31.583,FlowerSimilarity_Experiment,2020.1.2,Win32,60,5fe17d4a51f3a9c1a60f9869,,,,,,,,,,,,,,,,,,,9,FF,,0,1.116,,,,,,,,,,,,,,,,,,,,,,,,,,,,,,,,,,-63,112,1,0,0,response7disk,9,59,-4,0,1,0,0,rectangle,-4,0,1,0,0,0,3,"[93,322,36,175,207,263,291,182,199,75,171,21,282,8,139,185,153,194,121,6]",-4,0,1,0,0,0,58,58,17,1,,,,,,,,,,,,,,,,,,,,,,,
,,,,,,,,,,,,,,,,,,,,,,,,,,,,,,,,,,,,,,,,,,,59858eab7678a6000110e4d6,5fe19205d71cab4173dc21f5,2020-12-22_07h28.31.583,FlowerSimilarity_Experiment,2020.1.2,Win32,60,5fe17d4a51f3a9c1a60f9869,,,,,,,,,,,,,,,,,,,9,FF,,7,1.307,,,,,,,,,,,,,,,,,,,,,,,,,,,,,,,,,,28,115,1,0,0,response1disk,4,60,-7,0,1,0,0,rectangle,-7,0,1,0,0,0,0,"[93,322,36,175,207,263,291,182,199,75,171,21,282,8,139,185,153,194,121,6]",-7,0,1,0,0,0,59,59,60,1,,,,,,,,,,,,,,,,,,,,,,,
,,,,,,,,,,,,,,,,,,,,,,,,,,,,,,,,,,,,,,,,,,,59858eab7678a6000110e4d6,5fe19205d71cab4173dc21f5,2020-12-22_07h28.31.583,FlowerSimilarity_Experiment,2020.1.2,Win32,60,5fe17d4a51f3a9c1a60f9869,,,,,,,,,,,,,,,,,,,9,PF,,6,2.265,,,,,,,,,,,,,,,,,,,,,,,,,,,,,,,,,,78,51,1,0,0,response1disk,5,61,4,2,1,0,0,rectangle,4,2,1,0,0,0,0,"[93,322,36,175,207,263,291,182,199,75,171,21,282,8,139,185,153,194,121,6]",4,2,1,0,0,0,60,60,134,1,,,,,,,,,,,,,,,,,,,,,,,
,,,,,,,,,,,,,,,,,,,,,,,,,,,,,,,,,,,,,,,,,,,59858eab7678a6000110e4d6,5fe19205d71cab4173dc21f5,2020-12-22_07h28.31.583,FlowerSimilarity_Experiment,2020.1.2,Win32,60,5fe17d4a51f3a9c1a60f9869,,,,,,,,,,,,,,,,,,,5,PF,,4,1.45,,,,,,,,,,,,,,,,,,,,,,,,,,,,,,,,,,49,-98,1,0,0,response3disk,8,62,-7,-11,1,0,0,rectangle,-7,-11,1,0,0,0,7,"[93,322,36,175,207,263,291,182,199,75,171,21,282,8,139,185,153,194,121,6]",-7,-11,1,0,0,0,61,61,149,1,,,,,,,,,,,,,,,,,,,,,,,
,,,,,,,,,,,,,,,,,,,,,,,,,,,,,,,,,,,,,,,,,,,59858eab7678a6000110e4d6,5fe19205d71cab4173dc21f5,2020-12-22_07h28.31.583,FlowerSimilarity_Experiment,2020.1.2,Win32,60,5fe17d4a51f3a9c1a60f9869,,,,,,,,,,,,,,,,,,,7,FF,,7,1.193,,,,,,,,,,,,,,,,,,,,,,,,,,,,,,,,,,55,96,1,0,0,response1disk,9,63,14,5,1,0,0,rectangle,14,5,1,0,0,0,4,"[93,322,36,175,207,263,291,182,199,75,171,21,282,8,139,185,153,194,121,6]",14,5,1,0,0,0,62,62,155,1,,,,,,,,,,,,,,,,,,,,,,,
,,,,,,,,,,,,,,,,,,,,,,,,,,,,,,,,,,,,,,,,,,,59858eab7678a6000110e4d6,5fe19205d71cab4173dc21f5,2020-12-22_07h28.31.583,FlowerSimilarity_Experiment,2020.1.2,Win32,60,5fe17d4a51f3a9c1a60f9869,,,,,,,,,,,,,,,,,,,7,PF,,5,3.734,,,,,,,,,,,,,,,,,,,,,,,,,,,,,,,,,,79,-32,1,0,0,response3disk,8,64,31,-13,1,0,0,rectangle,31,-13,1,0,0,0,6,"[93,322,36,175,207,263,291,182,199,75,171,21,282,8,139,185,153,194,121,6]",31,-13,1,0,0,0,63,63,140,1,,,,,,,,,,,,,,,,,,,,,,,
,,,,,,,,,,,,,,,,,,,,,,,,,,,,,,,,,,,,,,,,,,,59858eab7678a6000110e4d6,5fe19205d71cab4173dc21f5,2020-12-22_07h28.31.583,FlowerSimilarity_Experiment,2020.1.2,Win32,60,5fe17d4a51f3a9c1a60f9869,,,,,,,,,,,,,,,,,,,3,FF,,5,1.517,,,,,,,,,,,,,,,,,,,,,,,,,,,,,,,,,,57,-37,1,0,0,response3disk,6,65,7,-5,1,0,0,rectangle,7,-5,1,0,0,0,2,"[93,322,36,175,207,263,291,182,199,75,171,21,282,8,139,185,153,194,121,6]",7,-5,1,0,0,0,64,64,95,1,,,,,,,,,,,,,,,,,,,,,,,
,,,,,,,,,,,,,,,,,,,,,,,,,,,,,,,,,,,,,,,,,,,59858eab7678a6000110e4d6,5fe19205d71cab4173dc21f5,2020-12-22_07h28.31.583,FlowerSimilarity_Experiment,2020.1.2,Win32,60,5fe17d4a51f3a9c1a60f9869,,,,,,,,,,,,,,,,,,,2,FF,,3,1.467,,,,,,,,,,,,,,,,,,,,,,,,,,,,,,,,,,-60,-106,1,0,0,response5disk,7,66,10,0,1,0,0,rectangle,10,0,1,0,0,0,1,"[93,322,36,175,207,263,291,182,199,75,171,21,282,8,139,185,153,194,121,6]",10,0,1,0,0,0,65,65,63,1,,,,,,,,,,,,,,,,,,,,,,,
,,,,,,,,,,,,,,,,,,,,,,,,,,,,,,,,,,,,,,,,,,,59858eab7678a6000110e4d6,5fe19205d71cab4173dc21f5,2020-12-22_07h28.31.583,FlowerSimilarity_Experiment,2020.1.2,Win32,60,5fe17d4a51f3a9c1a60f9869,,,,,,,,,,,,,,,,,,,4,FF,,6,1.133,,,,,,,,,,,,,,,,,,,,,,,,,,,,,,,,,,73,27,1,0,0,response1disk,9,67,-6,5,1,0,0,rectangle,-6,5,1,0,0,0,3,"[93,322,36,175,207,263,291,182,199,75,171,21,282,8,139,185,153,194,121,6]",-6,5,1,0,0,0,66,66,90,1,,,,,,,,,,,,,,,,,,,,,,,
,,,,,,,,,,,,,,,,,,,,,,,,,,,,,,,,,,,,,,,,,,,59858eab7678a6000110e4d6,5fe19205d71cab4173dc21f5,2020-12-22_07h28.31.583,FlowerSimilarity_Experiment,2020.1.2,Win32,60,5fe17d4a51f3a9c1a60f9869,,,,,,,,,,,,,,,,,,,5,PF,,6,1.284,,,,,,,,,,,,,,,,,,,,,,,,,,,,,,,,,,81,32,1,0,0,response1disk,9,68,-1,8,1,0,0,rectangle,-1,8,1,0,0,0,2,"[93,322,36,175,207,263,291,182,199,75,171,21,282,8,139,185,153,194,121,6]",-1,8,1,0,0,0,67,67,136,1,,,,,,,,,,,,,,,,,,,,,,,
,,,,,,,,,,,,,,,,,,,,,,,,,,,,,,,,,,,,,,,,,,,59858eab7678a6000110e4d6,5fe19205d71cab4173dc21f5,2020-12-22_07h28.31.583,FlowerSimilarity_Experiment,2020.1.2,Win32,60,5fe17d4a51f3a9c1a60f9869,,,,,,,,,,,,,,,,,,,1,FF,,6,1.185,,,,,,,,,,,,,,,,,,,,,,,,,,,,,,,,,,106,32,1,0,0,response1disk,2,69,15,-6,1,0,0,rectangle,15,-6,1,0,0,0,1,"[93,322,36,175,207,263,291,182,199,75,171,21,282,8,139,185,153,194,121,6]",15,-6,1,0,0,0,68,68,2,1,,,,,,,,,,,,,,,,,,,,,,,
,,,,,,,,,,,,,,,,,,,,,,,,,,,,,,,,,,,,,,,,,,,59858eab7678a6000110e4d6,5fe19205d71cab4173dc21f5,2020-12-22_07h28.31.583,FlowerSimilarity_Experiment,2020.1.2,Win32,60,5fe17d4a51f3a9c1a60f9869,,,,,,,,,,,,,,,,,,,8,FF,,4,1.757,,,,,,,,,,,,,,,,,,,,,,,,,,,,,,,,,,47,-78,1,0,0,response3disk,7,70,-4,5,1,0,0,rectangle,-4,5,1,0,0,0,2,"[93,322,36,175,207,263,291,182,199,75,171,21,282,8,139,185,153,194,121,6]",-4,5,1,0,0,0,69,69,86,1,,,,,,,,,,,,,,,,,,,,,,,
,,,,,,,,,,,,,,,,,,,,,,,,,,,,,,,,,,,,,,,,,,,59858eab7678a6000110e4d6,5fe19205d71cab4173dc21f5,2020-12-22_07h28.31.583,FlowerSimilarity_Experiment,2020.1.2,Win32,60,5fe17d4a51f3a9c1a60f9869,,,,,,,,,,,,,,,,,,,4,FF,,7,1.118,,,,,,,,,,,,,,,,,,,,,,,,,,,,,,,,,,60,83,1,0,0,response1disk,8,71,4,5,1,0,0,rectangle,4,5,1,0,0,0,6,"[93,322,36,175,207,263,291,182,199,75,171,21,282,8,139,185,153,194,121,6]",4,5,1,0,0,0,70,70,35,1,,,,,,,,,,,,,,,,,,,,,,,
,,,,,,,,,,,,,,,,,,,,,,,,,,,,,,,,,,,,,,,,,,,59858eab7678a6000110e4d6,5fe19205d71cab4173dc21f5,2020-12-22_07h28.31.583,FlowerSimilarity_Experiment,2020.1.2,Win32,60,5fe17d4a51f3a9c1a60f9869,,,,,,,,,,,,,,,,,,,9,PF,,2,1.087,,,,,,,,,,,,,,,,,,,,,,,,,,,,,,,,,,-95,-29,1,0,0,response5disk,1,72,-22,11,1,0,0,rectangle,-22,11,1,0,0,0,1,"[93,322,36,175,207,263,291,182,199,75,171,21,282,8,139,185,153,194,121,6]",-22,11,1,0,0,0,71,71,74,1,,,,,,,,,,,,,,,,,,,,,,,
,,,,,,,,,,,,,,,,,,,,,,,,,,,,,,,,,,,,,,,,,,,59858eab7678a6000110e4d6,5fe19205d71cab4173dc21f5,2020-12-22_07h28.31.583,FlowerSimilarity_Experiment,2020.1.2,Win32,60,5fe17d4a51f3a9c1a60f9869,,,,,,,,,,,,,,,,,,,6,PF,,6,1.345,,,,,,,,,,,,,,,,,,,,,,,,,,,,,,,,,,63,42,1,0,0,response1disk,3,73,25,6,1,0,0,rectangle,25,6,1,0,0,0,1,"[93,322,36,175,207,263,291,182,199,75,171,21,282,8,139,185,153,194,121,6]",25,6,1,0,0,0,72,72,26,1,,,,,,,,,,,,,,,,,,,,,,,
,,,,,,,,,,,,,,,,,,,,,,,,,,,,,,,,,,,,,,,,,,,59858eab7678a6000110e4d6,5fe19205d71cab4173dc21f5,2020-12-22_07h28.31.583,FlowerSimilarity_Experiment,2020.1.2,Win32,60,5fe17d4a51f3a9c1a60f9869,,,,,,,,,,,,,,,,,,,2,FF,,5,2.868,,,,,,,,,,,,,,,,,,,,,,,,,,,,,,,,,,74,-42,1,0,0,response3disk,1,74,15,0,1,0,0,rectangle,15,0,1,0,0,0,5,"[93,322,36,175,207,263,291,182,199,75,171,21,282,8,139,185,153,194,121,6]",15,0,1,0,0,0,73,73,85,1,,,,,,,,,,,,,,,,,,,,,,,
,,,,,,,,,,,,,,,,,,,,,,,,,,,,,,,,,,,,,,,,,,,59858eab7678a6000110e4d6,5fe19205d71cab4173dc21f5,2020-12-22_07h28.31.583,FlowerSimilarity_Experiment,2020.1.2,Win32,60,5fe17d4a51f3a9c1a60f9869,,,,,,,,,,,,,,,,,,,9,PF,,0,0.885,,,,,,,,,,,,,,,,,,,,,,,,,,,,,,,,,,-58,106,1,0,0,response7disk,9,75,-10,0,1,0,0,rectangle,-33,90,1,0,0,0,0,"[93,322,36,175,207,263,291,182,199,75,171,21,282,8,139,185,153,194,121,6]",2,-3,1,0,0,0,74,74,106,1,response7disk_3,rectangle,,,,,,,,,,,,,,,,,,,,,
,,,,,,,,,,,,,,,,,,,,,,,,,,,,,,,,,,,,,,,,,,,59858eab7678a6000110e4d6,5fe19205d71cab4173dc21f5,2020-12-22_07h28.31.583,FlowerSimilarity_Experiment,2020.1.2,Win32,60,5fe17d4a51f3a9c1a60f9869,,,,,,,,,,,,,,,,,,,5,FF,,7,1.016,,,,,,,,,,,,,,,,,,,,,,,,,,,,,,,,,,58,94,1,0,0,response1disk,9,76,6,-6,1,0,0,rectangle,6,-6,1,0,0,0,2,"[93,322,36,175,207,263,291,182,199,75,171,21,282,8,139,185,153,194,121,6]",6,-6,1,0,0,0,75,75,61,1,,,,,,,,,,,,,,,,,,,,,,,
,,,,,,,,,,,,,,,,,,,,,,,,,,,,,,,,,,,,,,,,,,,59858eab7678a6000110e4d6,5fe19205d71cab4173dc21f5,2020-12-22_07h28.31.583,FlowerSimilarity_Experiment,2020.1.2,Win32,60,5fe17d4a51f3a9c1a60f9869,,,,,,,,,,,,,,,,,,,1,PF,,6,3.712,,,,,,,,,,,,,,,,,,,,,,,,,,,,,,,,,,86,22,1,0,0,response1disk,4,77,2,2,1,0,0,rectangle,2,2,1,0,0,0,0,"[93,322,36,175,207,263,291,182,199,75,171,21,282,8,139,185,153,194,121,6]",2,2,1,0,0,0,76,76,139,1,,,,,,,,,,,,,,,,,,,,,,,
,,,,,,,,,,,,,,,,,,,,,,,,,,,,,,,,,,,,,,,,,,,59858eab7678a6000110e4d6,5fe19205d71cab4173dc21f5,2020-12-22_07h28.31.583,FlowerSimilarity_Experiment,2020.1.2,Win32,60,5fe17d4a51f3a9c1a60f9869,,,,,,,,,,,,,,,,,,,3,PF,,7,1.115,,,,,,,,,,,,,,,,,,,,,,,,,,,,,,,,,,52,94,1,0,0,response1disk,9,78,-12,10,1,0,0,rectangle,-12,10,1,0,0,0,7,"[93,322,36,175,207,263,291,182,199,75,171,21,282,8,139,185,153,194,121,6]",-12,10,1,0,0,0,77,77,79,1,,,,,,,,,,,,,,,,,,,,,,,
,,,,,,,,,,,,,,,,,,,,,,,,,,,,,,,,,,,,,,,,,,,59858eab7678a6000110e4d6,5fe19205d71cab4173dc21f5,2020-12-22_07h28.31.583,FlowerSimilarity_Experiment,2020.1.2,Win32,60,5fe17d4a51f3a9c1a60f9869,,,,,,,,,,,,,,,,,,,6,FF,,5,2.102,,,,,,,,,,,,,,,,,,,,,,,,,,,,,,,,,,84,-62,1,0,0,response3disk,3,79,6,5,1,0,0,rectangle,6,5,1,0,0,0,0,"[93,322,36,175,207,263,291,182,199,75,171,21,282,8,139,185,153,194,121,6]",6,5,1,0,0,0,78,78,21,1,,,,,,,,,,,,,,,,,,,,,,,
,,,,,,,,,,,,,,,,,,,,,,,,,,,,,,,,,,,,,,,,,,,59858eab7678a6000110e4d6,5fe19205d71cab4173dc21f5,2020-12-22_07h28.31.583,FlowerSimilarity_Experiment,2020.1.2,Win32,60,5fe17d4a51f3a9c1a60f9869,,,,,,,,,,,,,,,,,,,8,PF,,7,2.217,,,,,,,,,,,,,,,,,,,,,,,,,,,,,,,,,,41,99,1,0,0,response1disk,4,80,-14,5,1,0,0,rectangle,-14,5,1,0,0,0,3,"[93,322,36,175,207,263,291,182,199,75,171,21,282,8,139,185,153,194,121,6]",-14,5,1,0,0,0,79,79,78,1,,,,,,,,,,,,,,,,,,,,,,,
,,,,,,,,,,,,,,,,,,,,,,,,,,,,,,,,,,,,,,,,,,,59858eab7678a6000110e4d6,5fe19205d71cab4173dc21f5,2020-12-22_07h28.31.583,FlowerSimilarity_Experiment,2020.1.2,Win32,60,5fe17d4a51f3a9c1a60f9869,,,,,,,,,,,,,,,,,,,5,PF,,6,1.082,,,,,,,,,,,,,,,,,,,,,,,,,,,,,,,,,,95,45,1,0,0,response1disk,4,81,-15,10,1,0,0,rectangle,-15,10,1,0,0,0,0,"[93,322,36,175,207,263,291,182,199,75,171,21,282,8,139,185,153,194,121,6]",-15,10,1,0,0,0,80,80,54,1,,,,,,,,,,,,,,,,,,,,,,,
,,,,,,,,,,,,,,,,,,,,,,,,,,,,,,,,,,,,,,,,,,,59858eab7678a6000110e4d6,5fe19205d71cab4173dc21f5,2020-12-22_07h28.31.583,FlowerSimilarity_Experiment,2020.1.2,Win32,60,5fe17d4a51f3a9c1a60f9869,,,,,,,,,,,,,,,,,,,8,FF,,5,1.485,,,,,,,,,,,,,,,,,,,,,,,,,,,,,,,,,,76,-51,1,0,0,response3disk,1,82,2,-2,1,0,0,rectangle,2,-2,1,0,0,0,7,"[93,322,36,175,207,263,291,182,199,75,171,21,282,8,139,185,153,194,121,6]",2,-2,1,0,0,0,81,81,20,1,,,,,,,,,,,,,,,,,,,,,,,
,,,,,,,,,,,,,,,,,,,,,,,,,,,,,,,,,,,,,,,,,,,59858eab7678a6000110e4d6,5fe19205d71cab4173dc21f5,2020-12-22_07h28.31.583,FlowerSimilarity_Experiment,2020.1.2,Win32,60,5fe17d4a51f3a9c1a60f9869,,,,,,,,,,,,,,,,,,,1,FF,,4,1.102,,,,,,,,,,,,,,,,,,,,,,,,,,,,,,,,,,52,-74,1,0,0,response3disk,8,83,-6,-8,1,0,0,rectangle,-6,-8,1,0,0,0,6,"[93,322,36,175,207,263,291,182,199,75,171,21,282,8,139,185,153,194,121,6]",-6,-8,1,0,0,0,82,82,27,1,,,,,,,,,,,,,,,,,,,,,,,
,,,,,,,,,,,,,,,,,,,,,,,,,,,,,,,,,,,,,,,,,,,59858eab7678a6000110e4d6,5fe19205d71cab4173dc21f5,2020-12-22_07h28.31.583,FlowerSimilarity_Experiment,2020.1.2,Win32,60,5fe17d4a51f3a9c1a60f9869,,,,,,,,,,,,,,,,,,,3,FF,,6,1.001,,,,,,,,,,,,,,,,,,,,,,,,,,,,,,,,,,76,45,1,0,0,response1disk,9,84,12,8,1,0,0,rectangle,12,8,1,0,0,0,1,"[93,322,36,175,207,263,291,182,199,75,171,21,282,8,139,185,153,194,121,6]",12,8,1,0,0,0,83,83,143,1,,,,,,,,,,,,,,,,,,,,,,,
,,,,,,,,,,,,,,,,,,,,,,,,,,,,,,,,,,,,,,,,,,,59858eab7678a6000110e4d6,5fe19205d71cab4173dc21f5,2020-12-22_07h28.31.583,FlowerSimilarity_Experiment,2020.1.2,Win32,60,5fe17d4a51f3a9c1a60f9869,,,,,,,,,,,,,,,,,,,7,PF,,4,1.35,,,,,,,,,,,,,,,,,,,,,,,,,,,,,,,,,,34,-75,1,0,0,response3disk,5,85,-20,3,1,0,0,rectangle,-20,3,1,0,0,0,6,"[93,322,36,175,207,263,291,182,199,75,171,21,282,8,139,185,153,194,121,6]",-20,3,1,0,0,0,84,84,92,1,,,,,,,,,,,,,,,,,,,,,,,
,,,,,,,,,,,,,,,,,,,,,,,,,,,,,,,,,,,,,,,,,,,59858eab7678a6000110e4d6,5fe19205d71cab4173dc21f5,2020-12-22_07h28.31.583,FlowerSimilarity_Experiment,2020.1.2,Win32,60,5fe17d4a51f3a9c1a60f9869,,,,,,,,,,,,,,,,,,,2,PF,,6,1.059,,,,,,,,,,,,,,,,,,,,,,,,,,,,,,,,,,84,70,1,0,0,response1disk,9,86,-4,2,1,0,0,rectangle,-4,2,1,0,0,0,7,"[93,322,36,175,207,263,291,182,199,75,171,21,282,8,139,185,153,194,121,6]",-4,2,1,0,0,0,85,85,39,1,,,,,,,,,,,,,,,,,,,,,,,
,,,,,,,,,,,,,,,,,,,,,,,,,,,,,,,,,,,,,,,,,,,59858eab7678a6000110e4d6,5fe19205d71cab4173dc21f5,2020-12-22_07h28.31.583,FlowerSimilarity_Experiment,2020.1.2,Win32,60,5fe17d4a51f3a9c1a60f9869,,,,,,,,,,,,,,,,,,,9,FF,,2,1.316,,,,,,,,,,,,,,,,,,,,,,,,,,,,,,,,,,-89,-54,1,0,0,response5disk,1,87,2,-2,1,0,0,rectangle,2,-2,1,0,0,0,6,"[93,322,36,175,207,263,291,182,199,75,171,21,282,8,139,185,153,194,121,6]",2,-2,1,0,0,0,86,86,111,1,,,,,,,,,,,,,,,,,,,,,,,
,,,,,,,,,,,,,,,,,,,,,,,,,,,,,,,,,,,,,,,,,,,59858eab7678a6000110e4d6,5fe19205d71cab4173dc21f5,2020-12-22_07h28.31.583,FlowerSimilarity_Experiment,2020.1.2,Win32,60,5fe17d4a51f3a9c1a60f9869,,,,,,,,,,,,,,,,,,,6,PF,,3,1.084,,,,,,,,,,,,,,,,,,,,,,,,,,,,,,,,,,-38,-93,1,0,0,response5disk,1,88,-2,6,1,0,0,rectangle,-2,6,1,0,0,0,7,"[93,322,36,175,207,263,291,182,199,75,171,21,282,8,139,185,153,194,121,6]",-2,6,1,0,0,0,87,87,46,1,,,,,,,,,,,,,,,,,,,,,,,
,,,,,,,,,,,,,,,,,,,,,,,,,,,,,,,,,,,,,,,,,,,59858eab7678a6000110e4d6,5fe19205d71cab4173dc21f5,2020-12-22_07h28.31.583,FlowerSimilarity_Experiment,2020.1.2,Win32,60,5fe17d4a51f3a9c1a60f9869,,,,,,,,,,,,,,,,,,,8,PF,,4,1.369,,,,,,,,,,,,,,,,,,,,,,,,,,,,,,,,,,42,-83,1,0,0,response3disk,7,89,-12,2,1,0,0,rectangle,-12,2,1,0,0,0,4,"[93,322,36,175,207,263,291,182,199,75,171,21,282,8,139,185,153,194,121,6]",-12,2,1,0,0,0,88,88,23,1,,,,,,,,,,,,,,,,,,,,,,,
,,,,,,,,,,,,,,,,,,,,,,,,,,,,,,,,,,,,,,,,,,,59858eab7678a6000110e4d6,5fe19205d71cab4173dc21f5,2020-12-22_07h28.31.583,FlowerSimilarity_Experiment,2020.1.2,Win32,60,5fe17d4a51f3a9c1a60f9869,,,,,,,,,,,,,,,,,,,4,FF,,7,1.012,,,,,,,,,,,,,,,,,,,,,,,,,,,,,,,,,,50,107,1,0,0,response1disk,1,90,2,6,1,0,0,rectangle,2,6,1,0,0,0,5,"[93,322,36,175,207,263,291,182,199,75,171,21,282,8,139,185,153,194,121,6]",2,6,1,0,0,0,89,89,102,1,,,,,,,,,,,,,,,,,,,,,,,
,,,,,,,,,,,,,,,,,,,,,,,,,,,,,,,,,,,,,,,,,,,59858eab7678a6000110e4d6,5fe19205d71cab4173dc21f5,2020-12-22_07h28.31.583,FlowerSimilarity_Experiment,2020.1.2,Win32,60,5fe17d4a51f3a9c1a60f9869,,,,,,,,,,,,,,,,,,,2,FF,,5,1.525,,,,,,,,,,,,,,,,,,,,,,,,,,,,,,,,,,87,-40,1,0,0,response3disk,6,91,-6,-10,1,0,0,rectangle,-6,-10,1,0,0,0,5,"[93,322,36,175,207,263,291,182,199,75,171,21,282,8,139,185,153,194,121,6]",-6,-10,1,0,0,0,90,90,40,1,,,,,,,,,,,,,,,,,,,,,,,
,,,,,,,,,,,,,,,,,,,,,,,,,,,,,,,,,,,,,,,,,,,59858eab7678a6000110e4d6,5fe19205d71cab4173dc21f5,2020-12-22_07h28.31.583,FlowerSimilarity_Experiment,2020.1.2,Win32,60,5fe17d4a51f3a9c1a60f9869,,,,,,,,,,,,,,,,,,,4,PF,,0,0.881,,,,,,,,,,,,,,,,,,,,,,,,,,,,,,,,,,-58,118,1,0,0,response7disk,4,92,-12,-2,1,0,0,rectangle,-12,-2,1,0,0,0,5,"[93,322,36,175,207,263,291,182,199,75,171,21,282,8,139,185,153,194,121,6]",-12,-2,1,0,0,0,91,91,70,1,,,,,,,,,,,,,,,,,,,,,,,
,,,,,,,,,,,,,,,,,,,,,,,,,,,,,,,,,,,,,,,,,,,59858eab7678a6000110e4d6,5fe19205d71cab4173dc21f5,2020-12-22_07h28.31.583,FlowerSimilarity_Experiment,2020.1.2,Win32,60,5fe17d4a51f3a9c1a60f9869,,,,,,,,,,,,,,,,,,,4,PF,,6,1.105,,,,,,,,,,,,,,,,,,,,,,,,,,,,,,,,,,97,34,1,0,0,response1disk,6,93,9,-5,1,0,0,rectangle,-121,-46,1,0,0,0,2,"[93,322,36,175,207,263,291,182,199,75,171,21,282,8,139,185,153,194,121,6]",-22,11,1,0,0,0,92,92,120,1,response5disk_3,rectangle,,,,,,,,,,,,,,,,,,,,,
,,,,,,,,,,,,,,,,,,,,,,,,,,,,,,,,,,,,,,,,,,,59858eab7678a6000110e4d6,5fe19205d71cab4173dc21f5,2020-12-22_07h28.31.583,FlowerSimilarity_Experiment,2020.1.2,Win32,60,5fe17d4a51f3a9c1a60f9869,,,,,,,,,,,,,,,,,,,5,FF,,6,3.161,,,,,,,,,,,,,,,,,,,,,,,,,,,,,,,,,,127,38,1,0,0,response1disk,4,94,12,-2,1,0,0,rectangle,12,-2,1,0,0,0,4,"[93,322,36,175,207,263,291,182,199,75,171,21,282,8,139,185,153,194,121,6]",12,-2,1,0,0,0,93,93,8,1,,,,,,,,,,,,,,,,,,,,,,,
,,,,,,,,,,,,,,,,,,,,,,,,,,,,,,,,,,,,,,,,,,,59858eab7678a6000110e4d6,5fe19205d71cab4173dc21f5,2020-12-22_07h28.31.583,FlowerSimilarity_Experiment,2020.1.2,Win32,60,5fe17d4a51f3a9c1a60f9869,,,,,,,,,,,,,,,,,,,5,PF,,3,2.759,,,,,,,,,,,,,,,,,,,,,,,,,,,,,,,,,,-47,-96,1,0,0,response5disk,2,95,-2,-2,1,0,0,rectangle,-2,-2,1,0,0,0,6,"[93,322,36,175,207,263,291,182,199,75,171,21,282,8,139,185,153,194,121,6]",-2,-2,1,0,0,0,94,94,129,1,,,,,,,,,,,,,,,,,,,,,,,
,,,,,,,,,,,,,,,,,,,,,,,,,,,,,,,,,,,,,,,,,,,59858eab7678a6000110e4d6,5fe19205d71cab4173dc21f5,2020-12-22_07h28.31.583,FlowerSimilarity_Experiment,2020.1.2,Win32,60,5fe17d4a51f3a9c1a60f9869,,,,,,,,,,,,,,,,,,,7,PF,,2,1.583,,,,,,,,,,,,,,,,,,,,,,,,,,,,,,,,,,-76,-53,1,0,0,response5disk,7,96,14,-3,1,0,0,rectangle,14,-3,1,0,0,0,2,"[93,322,36,175,207,263,291,182,199,75,171,21,282,8,139,185,153,194,121,6]",14,-3,1,0,0,0,95,95,51,1,,,,,,,,,,,,,,,,,,,,,,,
,,,,,,,,,,,,,,,,,,,,,,,,,,,,,,,,,,,,,,,,,,,59858eab7678a6000110e4d6,5fe19205d71cab4173dc21f5,2020-12-22_07h28.31.583,FlowerSimilarity_Experiment,2020.1.2,Win32,60,5fe17d4a51f3a9c1a60f9869,,,,,,,,,,,,,,,,,,,8,PF,,5,1.15,,,,,,,,,,,,,,,,,,,,,,,,,,,,,,,,,,90,-42,1,0,0,response3disk,9,97,15,-16,1,0,0,rectangle,15,-16,1,0,0,0,4,"[93,322,36,175,207,263,291,182,199,75,171,21,282,8,139,185,153,194,121,6]",15,-16,1,0,0,0,96,96,42,1,,,,,,,,,,,,,,,,,,,,,,,
,,,,,,,,,,,,,,,,,,,,,,,,,,,,,,,,,,,,,,,,,,,59858eab7678a6000110e4d6,5fe19205d71cab4173dc21f5,2020-12-22_07h28.31.583,FlowerSimilarity_Experiment,2020.1.2,Win32,60,5fe17d4a51f3a9c1a60f9869,,,,,,,,,,,,,,,,,,,1,FF,,0,0.999,,,,,,,,,,,,,,,,,,,,,,,,,,,,,,,,,,-52,115,1,0,0,response7disk,1,98,-4,11,1,0,0,rectangle,-4,11,1,0,0,0,7,"[93,322,36,175,207,263,291,182,199,75,171,21,282,8,139,185,153,194,121,6]",-4,11,1,0,0,0,97,97,151,1,,,,,,,,,,,,,,,,,,,,,,,
,,,,,,,,,,,,,,,,,,,,,,,,,,,,,,,,,,,,,,,,,,,59858eab7678a6000110e4d6,5fe19205d71cab4173dc21f5,2020-12-22_07h28.31.583,FlowerSimilarity_Experiment,2020.1.2,Win32,60,5fe17d4a51f3a9c1a60f9869,,,,,,,,,,,,,,,,,,,2,FF,,3,1.31,,,,,,,,,,,,,,,,,,,,,,,,,,,,,,,,,,-36,-94,1,0,0,response5disk,4,99,2,2,1,0,0,rectangle,2,2,1,0,0,0,1,"[93,322,36,175,207,263,291,182,199,75,171,21,282,8,139,185,153,194,121,6]",2,2,1,0,0,0,98,98,145,1,,,,,,,,,,,,,,,,,,,,,,,
,,,,,,,,,,,,,,,,,,,,,,,,,,,,,,,,,,,,,,,,,,,59858eab7678a6000110e4d6,5fe19205d71cab4173dc21f5,2020-12-22_07h28.31.583,FlowerSimilarity_Experiment,2020.1.2,Win32,60,5fe17d4a51f3a9c1a60f9869,,,,,,,,,,,,,,,,,,,8,PF,,0,0.884,,,,,,,,,,,,,,,,,,,,,,,,,,,,,,,,,,-49,75,1,0,0,response7disk,8,100,14,2,1,0,0,rectangle,14,2,1,0,0,0,1,"[93,322,36,175,207,263,291,182,199,75,171,21,282,8,139,185,153,194,121,6]",14,2,1,0,0,0,99,99,153,1,,,,,,,,,,,,,,,,,,,,,,,
,,,,,,,,,,,,,,,,,,,,,,,,,,,,,,,,,,,,,,,,,,,59858eab7678a6000110e4d6,5fe19205d71cab4173dc21f5,2020-12-22_07h28.31.583,FlowerSimilarity_Experiment,2020.1.2,Win32,60,5fe17d4a51f3a9c1a60f9869,,,,,,,,,,,,,,,,,,,8,FF,,7,1.016,,,,,,,,,,,,,,,,,,,,,,,,,,,,,,,,,,65,101,1,0,0,response1disk,4,101,-15,11,1,0,0,rectangle,-15,11,1,0,0,0,1,"[93,322,36,175,207,263,291,182,199,75,171,21,282,8,139,185,153,194,121,6]",-15,11,1,0,0,0,100,100,88,1,,,,,,,,,,,,,,,,,,,,,,,
,,,,,,,,,,,,,,,,,,,,,,,,,,,,,,,,,,,,,,,,,,,59858eab7678a6000110e4d6,5fe19205d71cab4173dc21f5,2020-12-22_07h28.31.583,FlowerSimilarity_Experiment,2020.1.2,Win32,60,5fe17d4a51f3a9c1a60f9869,,,,,,,,,,,,,,,,,,,7,FF,,5,1.367,,,,,,,,,,,,,,,,,,,,,,,,,,,,,,,,,,58,-42,1,0,0,response3disk,2,102,12,8,1,0,0,rectangle,12,8,1,0,0,0,3,"[93,322,36,175,207,263,291,182,199,75,171,21,282,8,139,185,153,194,121,6]",12,8,1,0,0,0,101,101,138,1,,,,,,,,,,,,,,,,,,,,,,,
,,,,,,,,,,,,,,,,,,,,,,,,,,,,,,,,,,,,,,,,,,,59858eab7678a6000110e4d6,5fe19205d71cab4173dc21f5,2020-12-22_07h28.31.583,FlowerSimilarity_Experiment,2020.1.2,Win32,60,5fe17d4a51f3a9c1a60f9869,,,,,,,,,,,,,,,,,,,3,PF,,4,1.584,,,,,,,,,,,,,,,,,,,,,,,,,,,,,,,,,,47,-101,1,0,0,response3disk,5,103,-10,14,1,0,0,rectangle,-10,14,1,0,0,0,0,"[93,322,36,175,207,263,291,182,199,75,171,21,282,8,139,185,153,194,121,6]",-10,14,1,0,0,0,102,102,66,1,,,,,,,,,,,,,,,,,,,,,,,
,,,,,,,,,,,,,,,,,,,,,,,,,,,,,,,,,,,,,,,,,,,59858eab7678a6000110e4d6,5fe19205d71cab4173dc21f5,2020-12-22_07h28.31.583,FlowerSimilarity_Experiment,2020.1.2,Win32,60,5fe17d4a51f3a9c1a60f9869,,,,,,,,,,,,,,,,,,,9,FF,,5,1.36,,,,,,,,,,,,,,,,,,,,,,,,,,,,,,,,,,66,-40,1,0,0,response3disk,3,104,7,-11,1,0,0,rectangle,7,-11,1,0,0,0,3,"[93,322,36,175,207,263,291,182,199,75,171,21,282,8,139,185,153,194,121,6]",7,-11,1,0,0,0,103,103,141,1,,,,,,,,,,,,,,,,,,,,,,,
,,,,,,,,,,,,,,,,,,,,,,,,,,,,,,,,,,,,,,,,,,,59858eab7678a6000110e4d6,5fe19205d71cab4173dc21f5,2020-12-22_07h28.31.583,FlowerSimilarity_Experiment,2020.1.2,Win32,60,5fe17d4a51f3a9c1a60f9869,,,,,,,,,,,,,,,,,,,2,PF,,5,1.254,,,,,,,,,,,,,,,,,,,,,,,,,,,,,,,,,,65,-22,1,0,0,response3disk,5,105,14,-3,1,0,0,rectangle,14,-3,1,0,0,0,6,"[93,322,36,175,207,263,291,182,199,75,171,21,282,8,139,185,153,194,121,6]",14,-3,1,0,0,0,104,104,147,1,,,,,,,,,,,,,,,,,,,,,,,
,,,,,,,,,,,,,,,,,,,,,,,,,,,,,,,,,,,,,,,,,,,59858eab7678a6000110e4d6,5fe19205d71cab4173dc21f5,2020-12-22_07h28.31.583,FlowerSimilarity_Experiment,2020.1.2,Win32,60,5fe17d4a51f3a9c1a60f9869,,,,,,,,,,,,,,,,,,,4,PF,,7,1.176,,,,,,,,,,,,,,,,,,,,,,,,,,,,,,,,,,70,98,1,0,0,response1disk,1,106,2,6,1,0,0,rectangle,2,6,1,0,0,0,2,"[93,322,36,175,207,263,291,182,199,75,171,21,282,8,139,185,153,194,121,6]",2,6,1,0,0,0,105,105,115,1,,,,,,,,,,,,,,,,,,,,,,,
,,,,,,,,,,,,,,,,,,,,,,,,,,,,,,,,,,,,,,,,,,,59858eab7678a6000110e4d6,5fe19205d71cab4173dc21f5,2020-12-22_07h28.31.583,FlowerSimilarity_Experiment,2020.1.2,Win32,60,5fe17d4a51f3a9c1a60f9869,,,,,,,,,,,,,,,,,,,7,PF,,7,0.906,,,,,,,,,,,,,,,,,,,,,,,,,,,,,,,,,,52,80,1,0,0,response1disk,1,107,-9,-2,1,0,0,rectangle,-9,-2,1,0,0,0,7,"[93,322,36,175,207,263,291,182,199,75,171,21,282,8,139,185,153,194,121,6]",-9,-2,1,0,0,0,106,106,53,1,,,,,,,,,,,,,,,,,,,,,,,
,,,,,,,,,,,,,,,,,,,,,,,,,,,,,,,,,,,,,,,,,,,59858eab7678a6000110e4d6,5fe19205d71cab4173dc21f5,2020-12-22_07h28.31.583,FlowerSimilarity_Experiment,2020.1.2,Win32,60,5fe17d4a51f3a9c1a60f9869,,,,,,,,,,,,,,,,,,,2,FF,,6,1.211,,,,,,,,,,,,,,,,,,,,,,,,,,,,,,,,,,68,59,1,0,0,response1disk,8,108,-4,14,1,0,0,rectangle,-4,14,1,0,0,0,4,"[93,322,36,175,207,263,291,182,199,75,171,21,282,8,139,185,153,194,121,6]",-4,14,1,0,0,0,107,107,62,1,,,,,,,,,,,,,,,,,,,,,,,
,,,,,,,,,,,,,,,,,,,,,,,,,,,,,,,,,,,,,,,,,,,59858eab7678a6000110e4d6,5fe19205d71cab4173dc21f5,2020-12-22_07h28.31.583,FlowerSimilarity_Experiment,2020.1.2,Win32,60,5fe17d4a51f3a9c1a60f9869,,,,,,,,,,,,,,,,,,,6,PF,,0,0.967,,,,,,,,,,,,,,,,,,,,,,,,,,,,,,,,,,-44,109,1,0,0,response7disk,6,109,1,11,1,0,0,rectangle,1,11,1,0,0,0,6,"[93,322,36,175,207,263,291,182,199,75,171,21,282,8,139,185,153,194,121,6]",1,11,1,0,0,0,108,108,0,1,,,,,,,,,,,,,,,,,,,,,,,
,,,,,,,,,,,,,,,,,,,,,,,,,,,,,,,,,,,,,,,,,,,59858eab7678a6000110e4d6,5fe19205d71cab4173dc21f5,2020-12-22_07h28.31.583,FlowerSimilarity_Experiment,2020.1.2,Win32,60,5fe17d4a51f3a9c1a60f9869,,,,,,,,,,,,,,,,,,,2,FF,,0,0.93,,,,,,,,,,,,,,,,,,,,,,,,,,,,,,,,,,-49,96,1,0,0,response7disk,2,110,-2,2,1,0,0,rectangle,-2,2,1,0,0,0,6,"[93,322,36,175,207,263,291,182,199,75,171,21,282,8,139,185,153,194,121,6]",-2,2,1,0,0,0,109,109,142,1,,,,,,,,,,,,,,,,,,,,,,,
,,,,,,,,,,,,,,,,,,,,,,,,,,,,,,,,,,,,,,,,,,,59858eab7678a6000110e4d6,5fe19205d71cab4173dc21f5,2020-12-22_07h28.31.583,FlowerSimilarity_Experiment,2020.1.2,Win32,60,5fe17d4a51f3a9c1a60f9869,,,,,,,,,,,,,,,,,,,5,FF,,0,0.749,,,,,,,,,,,,,,,,,,,,,,,,,,,,,,,,,,-42,88,1,0,0,response7disk,5,111,1,10,1,0,0,rectangle,1,10,1,0,0,0,3,"[93,322,36,175,207,263,291,182,199,75,171,21,282,8,139,185,153,194,121,6]",1,10,1,0,0,0,110,110,19,1,,,,,,,,,,,,,,,,,,,,,,,
,,,,,,,,,,,,,,,,,,,,,,,,,,,,,,,,,,,,,,,,,,,59858eab7678a6000110e4d6,5fe19205d71cab4173dc21f5,2020-12-22_07h28.31.583,FlowerSimilarity_Experiment,2020.1.2,Win32,60,5fe17d4a51f3a9c1a60f9869,,,,,,,,,,,,,,,,,,,9,FF,,4,1.699,,,,,,,,,,,,,,,,,,,,,,,,,,,,,,,,,,70,-80,1,0,0,response3disk,7,112,7,-2,1,0,0,rectangle,7,-2,1,0,0,0,3,"[93,322,36,175,207,263,291,182,199,75,171,21,282,8,139,185,153,194,121,6]",7,-2,1,0,0,0,111,111,100,1,,,,,,,,,,,,,,,,,,,,,,,
,,,,,,,,,,,,,,,,,,,,,,,,,,,,,,,,,,,,,,,,,,,59858eab7678a6000110e4d6,5fe19205d71cab4173dc21f5,2020-12-22_07h28.31.583,FlowerSimilarity_Experiment,2020.1.2,Win32,60,5fe17d4a51f3a9c1a60f9869,,,,,,,,,,,,,,,,,,,4,PF,,6,1.718,,,,,,,,,,,,,,,,,,,,,,,,,,,,,,,,,,82,34,1,0,0,response1disk,5,113,2,3,1,0,0,rectangle,2,3,1,0,0,0,5,"[93,322,36,175,207,263,291,182,199,75,171,21,282,8,139,185,153,194,121,6]",2,3,1,0,0,0,112,112,49,1,,,,,,,,,,,,,,,,,,,,,,,
,,,,,,,,,,,,,,,,,,,,,,,,,,,,,,,,,,,,,,,,,,,59858eab7678a6000110e4d6,5fe19205d71cab4173dc21f5,2020-12-22_07h28.31.583,FlowerSimilarity_Experiment,2020.1.2,Win32,60,5fe17d4a51f3a9c1a60f9869,,,,,,,,,,,,,,,,,,,2,PF,,5,1.27,,,,,,,,,,,,,,,,,,,,,,,,,,,,,,,,,,97,-50,1,0,0,response3disk,7,114,-14,6,1,0,0,rectangle,-14,6,1,0,0,0,2,"[93,322,36,175,207,263,291,182,199,75,171,21,282,8,139,185,153,194,121,6]",-14,6,1,0,0,0,113,113,107,1,,,,,,,,,,,,,,,,,,,,,,,
,,,,,,,,,,,,,,,,,,,,,,,,,,,,,,,,,,,,,,,,,,,59858eab7678a6000110e4d6,5fe19205d71cab4173dc21f5,2020-12-22_07h28.31.583,FlowerSimilarity_Experiment,2020.1.2,Win32,60,5fe17d4a51f3a9c1a60f9869,,,,,,,,,,,,,,,,,,,8,PF,,4,1.284,,,,,,,,,,,,,,,,,,,,,,,,,,,,,,,,,,44,-67,1,0,0,response3disk,6,115,-10,3,1,0,0,rectangle,-10,3,1,0,0,0,2,"[93,322,36,175,207,263,291,182,199,75,171,21,282,8,139,185,153,194,121,6]",-10,3,1,0,0,0,114,114,161,1,,,,,,,,,,,,,,,,,,,,,,,
,,,,,,,,,,,,,,,,,,,,,,,,,,,,,,,,,,,,,,,,,,,59858eab7678a6000110e4d6,5fe19205d71cab4173dc21f5,2020-12-22_07h28.31.583,FlowerSimilarity_Experiment,2020.1.2,Win32,60,5fe17d4a51f3a9c1a60f9869,,,,,,,,,,,,,,,,,,,2,FF,,5,3.116,,,,,,,,,,,,,,,,,,,,,,,,,,,,,,,,,,81,-40,1,0,0,response3disk,9,116,-2,-2,1,0,0,rectangle,-2,-2,1,0,0,0,0,"[93,322,36,175,207,263,291,182,199,75,171,21,282,8,139,185,153,194,121,6]",-2,-2,1,0,0,0,115,115,72,1,,,,,,,,,,,,,,,,,,,,,,,
,,,,,,,,,,,,,,,,,,,,,,,,,,,,,,,,,,,,,,,,,,,59858eab7678a6000110e4d6,5fe19205d71cab4173dc21f5,2020-12-22_07h28.31.583,FlowerSimilarity_Experiment,2020.1.2,Win32,60,5fe17d4a51f3a9c1a60f9869,,,,,,,,,,,,,,,,,,,3,FF,,0,1.001,,,,,,,,,,,,,,,,,,,,,,,,,,,,,,,,,,-36,82,1,0,0,response7disk,7,117,4,-6,1,0,0,rectangle,4,-6,1,0,0,0,0,"[93,322,36,175,207,263,291,182,199,75,171,21,282,8,139,185,153,194,121,6]",4,-6,1,0,0,0,116,116,118,1,,,,,,,,,,,,,,,,,,,,,,,
,,,,,,,,,,,,,,,,,,,,,,,,,,,,,,,,,,,,,,,,,,,59858eab7678a6000110e4d6,5fe19205d71cab4173dc21f5,2020-12-22_07h28.31.583,FlowerSimilarity_Experiment,2020.1.2,Win32,60,5fe17d4a51f3a9c1a60f9869,,,,,,,,,,,,,,,,,,,6,PF,,5,0.97,,,,,,,,,,,,,,,,,,,,,,,,,,,,,,,,,,73,-32,1,0,0,response3disk,5,118,-7,3,1,0,0,rectangle,-7,3,1,0,0,0,4,"[93,322,36,175,207,263,291,182,199,75,171,21,282,8,139,185,153,194,121,6]",-7,3,1,0,0,0,117,117,59,1,,,,,,,,,,,,,,,,,,,,,,,
,,,,,,,,,,,,,,,,,,,,,,,,,,,,,,,,,,,,,,,,,,,59858eab7678a6000110e4d6,5fe19205d71cab4173dc21f5,2020-12-22_07h28.31.583,FlowerSimilarity_Experiment,2020.1.2,Win32,60,5fe17d4a51f3a9c1a60f9869,,,,,,,,,,,,,,,,,,,1,PF,,0,0.8,,,,,,,,,,,,,,,,,,,,,,,,,,,,,,,,,,-47,118,1,0,0,response7disk,1,119,-1,-2,1,0,0,rectangle,-1,-2,1,0,0,0,1,"[93,322,36,175,207,263,291,182,199,75,171,21,282,8,139,185,153,194,121,6]",-1,-2,1,0,0,0,118,118,76,1,,,,,,,,,,,,,,,,,,,,,,,
,,,,,,,,,,,,,,,,,,,,,,,,,,,,,,,,,,,,,,,,,,,59858eab7678a6000110e4d6,5fe19205d71cab4173dc21f5,2020-12-22_07h28.31.583,FlowerSimilarity_Experiment,2020.1.2,Win32,60,5fe17d4a51f3a9c1a60f9869,,,,,,,,,,,,,,,,,,,9,PF,,5,2.397,,,,,,,,,,,,,,,,,,,,,,,,,,,,,,,,,,92,-35,1,0,0,response3disk,8,120,-4,6,1,0,0,rectangle,-4,6,1,0,0,0,4,"[93,322,36,175,207,263,291,182,199,75,171,21,282,8,139,185,153,194,121,6]",-4,6,1,0,0,0,119,119,67,1,,,,,,,,,,,,,,,,,,,,,,,
,,,,,,,,,,,,,,,,,,,,,,,,,,,,,,,,,,,,,,,,,,,59858eab7678a6000110e4d6,5fe19205d71cab4173dc21f5,2020-12-22_07h28.31.583,FlowerSimilarity_Experiment,2020.1.2,Win32,60,5fe17d4a51f3a9c1a60f9869,,,,,,,,,,,,,,,,,,,5,FF,,4,1.168,,,,,,,,,,,,,,,,,,,,,,,,,,,,,,,,,,55,-101,1,0,0,response3disk,2,121,-15,6,1,0,0,rectangle,-49,86,1,0,0,0,0,"[93,322,36,175,207,263,291,182,199,75,171,21,282,8,139,185,153,194,121,6]",-1,-8,1,0,0,0,120,120,55,1,response7disk_3,rectangle,,,,,,,,,,,,,,,,,,,,,
,,,,,,,,,,,,,,,,,,,,,,,,,,,,,,,,,,,,,,,,,,,59858eab7678a6000110e4d6,5fe19205d71cab4173dc21f5,2020-12-22_07h28.31.583,FlowerSimilarity_Experiment,2020.1.2,Win32,60,5fe17d4a51f3a9c1a60f9869,,,,,,,,,,,,,,,,,,,2,PF,,5,5.891,,,,,,,,,,,,,,,,,,,,,,,,,,,,,,,,,,76,-43,1,0,0,response3disk,8,122,7,2,1,0,0,rectangle,7,2,1,0,0,0,3,"[93,322,36,175,207,263,291,182,199,75,171,21,282,8,139,185,153,194,121,6]",7,2,1,0,0,0,121,121,52,1,,,,,,,,,,,,,,,,,,,,,,,
,,,,,,,,,,,,,,,,,,,,,,,,,,,,,,,,,,,,,,,,,,,59858eab7678a6000110e4d6,5fe19205d71cab4173dc21f5,2020-12-22_07h28.31.583,FlowerSimilarity_Experiment,2020.1.2,Win32,60,5fe17d4a51f3a9c1a60f9869,,,,,,,,,,,,,,,,,,,1,FF,,1,1.55,,,,,,,,,,,,,,,,,,,,,,,,,,,,,,,,,,-113,40,1,0,0,response7disk,9,123,-12,10,1,0,0,rectangle,-12,10,1,0,0,0,3,"[93,322,36,175,207,263,291,182,199,75,171,21,282,8,139,185,153,194,121,6]",-12,10,1,0,0,0,122,122,123,1,,,,,,,,,,,,,,,,,,,,,,,
,,,,,,,,,,,,,,,,,,,,,,,,,,,,,,,,,,,,,,,,,,,59858eab7678a6000110e4d6,5fe19205d71cab4173dc21f5,2020-12-22_07h28.31.583,FlowerSimilarity_Experiment,2020.1.2,Win32,60,5fe17d4a51f3a9c1a60f9869,,,,,,,,,,,,,,,,,,,1,PF,,1,0.915,,,,,,,,,,,,,,,,,,,,,,,,,,,,,,,,,,-73,43,1,0,0,response7disk,9,124,-12,8,1,0,0,rectangle,-12,8,1,0,0,0,5,"[93,322,36,175,207,263,291,182,199,75,171,21,282,8,139,185,153,194,121,6]",-12,8,1,0,0,0,123,123,15,1,,,,,,,,,,,,,,,,,,,,,,,
,,,,,,,,,,,,,,,,,,,,,,,,,,,,,,,,,,,,,,,,,,,59858eab7678a6000110e4d6,5fe19205d71cab4173dc21f5,2020-12-22_07h28.31.583,FlowerSimilarity_Experiment,2020.1.2,Win32,60,5fe17d4a51f3a9c1a60f9869,,,,,,,,,,,,,,,,,,,6,FF,,5,1.395,,,,,,,,,,,,,,,,,,,,,,,,,,,,,,,,,,68,-22,1,0,0,response3disk,2,125,4,5,1,0,0,rectangle,4,5,1,0,0,0,2,"[93,322,36,175,207,263,291,182,199,75,171,21,282,8,139,185,153,194,121,6]",4,5,1,0,0,0,124,124,112,1,,,,,,,,,,,,,,,,,,,,,,,
,,,,,,,,,,,,,,,,,,,,,,,,,,,,,,,,,,,,,,,,,,,59858eab7678a6000110e4d6,5fe19205d71cab4173dc21f5,2020-12-22_07h28.31.583,FlowerSimilarity_Experiment,2020.1.2,Win32,60,5fe17d4a51f3a9c1a60f9869,,,,,,,,,,,,,,,,,,,9,FF,,6,1.396,,,,,,,,,,,,,,,,,,,,,,,,,,,,,,,,,,113,30,1,0,0,response1disk,8,126,12,2,1,0,0,rectangle,12,2,1,0,0,0,4,"[93,322,36,175,207,263,291,182,199,75,171,21,282,8,139,185,153,194,121,6]",12,2,1,0,0,0,125,125,6,1,,,,,,,,,,,,,,,,,,,,,,,
,,,,,,,,,,,,,,,,,,,,,,,,,,,,,,,,,,,,,,,,,,,59858eab7678a6000110e4d6,5fe19205d71cab4173dc21f5,2020-12-22_07h28.31.583,FlowerSimilarity_Experiment,2020.1.2,Win32,60,5fe17d4a51f3a9c1a60f9869,,,,,,,,,,,,,,,,,,,2,FF,,4,1.366,,,,,,,,,,,,,,,,,,,,,,,,,,,,,,,,,,38,-83,1,0,0,response3disk,5,127,-22,3,1,0,0,rectangle,-22,3,1,0,0,0,1,"[93,322,36,175,207,263,291,182,199,75,171,21,282,8,139,185,153,194,121,6]",-22,3,1,0,0,0,126,126,80,1,,,,,,,,,,,,,,,,,,,,,,,
,,,,,,,,,,,,,,,,,,,,,,,,,,,,,,,,,,,,,,,,,,,59858eab7678a6000110e4d6,5fe19205d71cab4173dc21f5,2020-12-22_07h28.31.583,FlowerSimilarity_Experiment,2020.1.2,Win32,60,5fe17d4a51f3a9c1a60f9869,,,,,,,,,,,,,,,,,,,6,FF,,5,1.034,,,,,,,,,,,,,,,,,,,,,,,,,,,,,,,,,,58,-24,1,0,0,response3disk,7,128,-6,-5,1,0,0,rectangle,-6,-5,1,0,0,0,7,"[93,322,36,175,207,263,291,182,199,75,171,21,282,8,139,185,153,194,121,6]",-6,-5,1,0,0,0,127,127,18,1,,,,,,,,,,,,,,,,,,,,,,,
,,,,,,,,,,,,,,,,,,,,,,,,,,,,,,,,,,,,,,,,,,,59858eab7678a6000110e4d6,5fe19205d71cab4173dc21f5,2020-12-22_07h28.31.583,FlowerSimilarity_Experiment,2020.1.2,Win32,60,5fe17d4a51f3a9c1a60f9869,,,,,,,,,,,,,,,,,,,1,PF,,5,0.774,,,,,,,,,,,,,,,,,,,,,,,,,,,,,,,,,,79,-27,1,0,0,response3disk,3,129,17,0,1,0,0,rectangle,17,0,1,0,0,0,2,"[93,322,36,175,207,263,291,182,199,75,171,21,282,8,139,185,153,194,121,6]",17,0,1,0,0,0,128,128,1,1,,,,,,,,,,,,,,,,,,,,,,,
,,,,,,,,,,,,,,,,,,,,,,,,,,,,,,,,,,,,,,,,,,,59858eab7678a6000110e4d6,5fe19205d71cab4173dc21f5,2020-12-22_07h28.31.583,FlowerSimilarity_Experiment,2020.1.2,Win32,60,5fe17d4a51f3a9c1a60f9869,,,,,,,,,,,,,,,,,,,6,FF,,6,2.351,,,,,,,,,,,,,,,,,,,,,,,,,,,,,,,,,,97,35,1,0,0,response1disk,5,130,2,-2,1,0,0,rectangle,2,-2,1,0,0,0,5,"[93,322,36,175,207,263,291,182,199,75,171,21,282,8,139,185,153,194,121,6]",2,-2,1,0,0,0,129,129,126,1,,,,,,,,,,,,,,,,,,,,,,,
,,,,,,,,,,,,,,,,,,,,,,,,,,,,,,,,,,,,,,,,,,,59858eab7678a6000110e4d6,5fe19205d71cab4173dc21f5,2020-12-22_07h28.31.583,FlowerSimilarity_Experiment,2020.1.2,Win32,60,5fe17d4a51f3a9c1a60f9869,,,,,,,,,,,,,,,,,,,7,PF,,6,1.205,,,,,,,,,,,,,,,,,,,,,,,,,,,,,,,,,,78,43,1,0,0,response1disk,6,131,-30,2,1,0,0,rectangle,-30,2,1,0,0,0,4,"[93,322,36,175,207,263,291,182,199,75,171,21,282,8,139,185,153,194,121,6]",-30,2,1,0,0,0,130,130,29,1,,,,,,,,,,,,,,,,,,,,,,,
,,,,,,,,,,,,,,,,,,,,,,,,,,,,,,,,,,,,,,,,,,,59858eab7678a6000110e4d6,5fe19205d71cab4173dc21f5,2020-12-22_07h28.31.583,FlowerSimilarity_Experiment,2020.1.2,Win32,60,5fe17d4a51f3a9c1a60f9869,,,,,,,,,,,,,,,,,,,7,FF,,4,1.128,,,,,,,,,,,,,,,,,,,,,,,,,,,,,,,,,,49,-83,1,0,0,response3disk,5,132,-18,0,1,0,0,rectangle,-18,0,1,0,0,0,0,"[93,322,36,175,207,263,291,182,199,75,171,21,282,8,139,185,153,194,121,6]",-18,0,1,0,0,0,131,131,156,1,,,,,,,,,,,,,,,,,,,,,,,
,,,,,,,,,,,,,,,,,,,,,,,,,,,,,,,,,,,,,,,,,,,59858eab7678a6000110e4d6,5fe19205d71cab4173dc21f5,2020-12-22_07h28.31.583,FlowerSimilarity_Experiment,2020.1.2,Win32,60,5fe17d4a51f3a9c1a60f9869,,,,,,,,,,,,,,,,,,,3,FF,,4,1.609,,,,,,,,,,,,,,,,,,,,,,,,,,,,,,,,,,39,-67,1,0,0,response3disk,5,133,-12,-2,1,0,0,rectangle,-12,-2,1,0,0,0,7,"[93,322,36,175,207,263,291,182,199,75,171,21,282,8,139,185,153,194,121,6]",-12,-2,1,0,0,0,132,132,101,1,,,,,,,,,,,,,,,,,,,,,,,
,,,,,,,,,,,,,,,,,,,,,,,,,,,,,,,,,,,,,,,,,,,59858eab7678a6000110e4d6,5fe19205d71cab4173dc21f5,2020-12-22_07h28.31.583,FlowerSimilarity_Experiment,2020.1.2,Win32,60,5fe17d4a51f3a9c1a60f9869,,,,,,,,,,,,,,,,,,,1,PF,,4,1.234,,,,,,,,,,,,,,,,,,,,,,,,,,,,,,,,,,28,-66,1,0,0,response3disk,5,134,-14,-3,1,0,0,rectangle,-14,-3,1,0,0,0,7,"[93,322,36,175,207,263,291,182,199,75,171,21,282,8,139,185,153,194,121,6]",-14,-3,1,0,0,0,133,133,28,1,,,,,,,,,,,,,,,,,,,,,,,
,,,,,,,,,,,,,,,,,,,,,,,,,,,,,,,,,,,,,,,,,,,59858eab7678a6000110e4d6,5fe19205d71cab4173dc21f5,2020-12-22_07h28.31.583,FlowerSimilarity_Experiment,2020.1.2,Win32,60,5fe17d4a51f3a9c1a60f9869,,,,,,,,,,,,,,,,,,,8,FF,,0,1.069,,,,,,,,,,,,,,,,,,,,,,,,,,,,,,,,,,-54,94,1,0,0,response7disk,8,135,12,10,1,0,0,rectangle,12,10,1,0,0,0,3,"[93,322,36,175,207,263,291,182,199,75,171,21,282,8,139,185,153,194,121,6]",12,10,1,0,0,0,134,134,48,1,,,,,,,,,,,,,,,,,,,,,,,
,,,,,,,,,,,,,,,,,,,,,,,,,,,,,,,,,,,,,,,,,,,59858eab7678a6000110e4d6,5fe19205d71cab4173dc21f5,2020-12-22_07h28.31.583,FlowerSimilarity_Experiment,2020.1.2,Win32,60,5fe17d4a51f3a9c1a60f9869,,,,,,,,,,,,,,,,,,,6,PF,,6,2.074,,,,,,,,,,,,,,,,,,,,,,,,,,,,,,,,,,97,37,1,0,0,response1disk,7,136,-7,16,1,0,0,rectangle,-7,16,1,0,0,0,5,"[93,322,36,175,207,263,291,182,199,75,171,21,282,8,139,185,153,194,121,6]",-7,16,1,0,0,0,135,135,50,1,,,,,,,,,,,,,,,,,,,,,,,
,,,,,,,,,,,,,,,,,,,,,,,,,,,,,,,,,,,,,,,,,,,59858eab7678a6000110e4d6,5fe19205d71cab4173dc21f5,2020-12-22_07h28.31.583,FlowerSimilarity_Experiment,2020.1.2,Win32,60,5fe17d4a51f3a9c1a60f9869,,,,,,,,,,,,,,,,,,,1,FF,,7,1.268,,,,,,,,,,,,,,,,,,,,,,,,,,,,,,,,,,42,96,1,0,0,response1disk,4,137,1,3,1,0,0,rectangle,1,3,1,0,0,0,2,"[93,322,36,175,207,263,291,182,199,75,171,21,282,8,139,185,153,194,121,6]",1,3,1,0,0,0,136,136,135,1,,,,,,,,,,,,,,,,,,,,,,,
,,,,,,,,,,,,,,,,,,,,,,,,,,,,,,,,,,,,,,,,,,,59858eab7678a6000110e4d6,5fe19205d71cab4173dc21f5,2020-12-22_07h28.31.583,FlowerSimilarity_Experiment,2020.1.2,Win32,60,5fe17d4a51f3a9c1a60f9869,,,,,,,,,,,,,,,,,,,8,PF,,3,1.175,,,,,,,,,,,,,,,,,,,,,,,,,,,,,,,,,,-36,-80,1,0,0,response5disk,5,138,-10,13,1,0,0,rectangle,-10,13,1,0,0,0,4,"[93,322,36,175,207,263,291,182,199,75,171,21,282,8,139,185,153,194,121,6]",-10,13,1,0,0,0,137,137,98,1,,,,,,,,,,,,,,,,,,,,,,,
,,,,,,,,,,,,,,,,,,,,,,,,,,,,,,,,,,,,,,,,,,,59858eab7678a6000110e4d6,5fe19205d71cab4173dc21f5,2020-12-22_07h28.31.583,FlowerSimilarity_Experiment,2020.1.2,Win32,60,5fe17d4a51f3a9c1a60f9869,,,,,,,,,,,,,,,,,,,9,FF,,1,1.399,,,,,,,,,,,,,,,,,,,,,,,,,,,,,,,,,,-82,42,1,0,0,response7disk,6,139,-15,-8,1,0,0,rectangle,-102,-37,1,0,0,0,2,"[93,322,36,175,207,263,291,182,199,75,171,21,282,8,139,185,153,194,121,6]",-12,3,1,0,0,0,138,138,117,1,response5disk_3,rectangle,,,,,,,,,,,,,,,,,,,,,
,,,,,,,,,,,,,,,,,,,,,,,,,,,,,,,,,,,,,,,,,,,59858eab7678a6000110e4d6,5fe19205d71cab4173dc21f5,2020-12-22_07h28.31.583,FlowerSimilarity_Experiment,2020.1.2,Win32,60,5fe17d4a51f3a9c1a60f9869,,,,,,,,,,,,,,,,,,,1,PF,,2,2.685,,,,,,,,,,,,,,,,,,,,,,,,,,,,,,,,,,-86,-24,1,0,0,response5disk,6,140,10,-11,1,0,0,rectangle,10,-11,1,0,0,0,2,"[93,322,36,175,207,263,291,182,199,75,171,21,282,8,139,185,153,194,121,6]",10,-11,1,0,0,0,139,139,144,1,,,,,,,,,,,,,,,,,,,,,,,
,,,,,,,,,,,,,,,,,,,,,,,,,,,,,,,,,,,,,,,,,,,59858eab7678a6000110e4d6,5fe19205d71cab4173dc21f5,2020-12-22_07h28.31.583,FlowerSimilarity_Experiment,2020.1.2,Win32,60,5fe17d4a51f3a9c1a60f9869,,,,,,,,,,,,,,,,,,,3,FF,,0,0.968,,,,,,,,,,,,,,,,,,,,,,,,,,,,,,,,,,-50,104,1,0,0,response7disk,3,141,-7,-2,1,0,0,rectangle,-7,-2,1,0,0,0,1,"[93,322,36,175,207,263,291,182,199,75,171,21,282,8,139,185,153,194,121,6]",-7,-2,1,0,0,0,140,140,68,1,,,,,,,,,,,,,,,,,,,,,,,
,,,,,,,,,,,,,,,,,,,,,,,,,,,,,,,,,,,,,,,,,,,59858eab7678a6000110e4d6,5fe19205d71cab4173dc21f5,2020-12-22_07h28.31.583,FlowerSimilarity_Experiment,2020.1.2,Win32,60,5fe17d4a51f3a9c1a60f9869,,,,,,,,,,,,,,,,,,,7,FF,,3,2.487,,,,,,,,,,,,,,,,,,,,,,,,,,,,,,,,,,-39,-74,1,0,0,response5disk,4,142,22,-10,1,0,0,rectangle,22,-10,1,0,0,0,5,"[93,322,36,175,207,263,291,182,199,75,171,21,282,8,139,185,153,194,121,6]",22,-10,1,0,0,0,141,141,158,1,,,,,,,,,,,,,,,,,,,,,,,
,,,,,,,,,,,,,,,,,,,,,,,,,,,,,,,,,,,,,,,,,,,59858eab7678a6000110e4d6,5fe19205d71cab4173dc21f5,2020-12-22_07h28.31.583,FlowerSimilarity_Experiment,2020.1.2,Win32,60,5fe17d4a51f3a9c1a60f9869,,,,,,,,,,,,,,,,,,,5,PF,,5,2.05,,,,,,,,,,,,,,,,,,,,,,,,,,,,,,,,,,82,-40,1,0,0,response3disk,7,143,14,0,1,0,0,rectangle,14,0,1,0,0,0,4,"[93,322,36,175,207,263,291,182,199,75,171,21,282,8,139,185,153,194,121,6]",14,0,1,0,0,0,142,142,146,1,,,,,,,,,,,,,,,,,,,,,,,
,,,,,,,,,,,,,,,,,,,,,,,,,,,,,,,,,,,,,,,,,,,59858eab7678a6000110e4d6,5fe19205d71cab4173dc21f5,2020-12-22_07h28.31.583,FlowerSimilarity_Experiment,2020.1.2,Win32,60,5fe17d4a51f3a9c1a60f9869,,,,,,,,,,,,,,,,,,,9,FF,,5,0.896,,,,,,,,,,,,,,,,,,,,,,,,,,,,,,,,,,79,-56,1,0,0,response3disk,5,144,-6,-3,1,0,0,rectangle,-6,-3,1,0,0,0,3,"[93,322,36,175,207,263,291,182,199,75,171,21,282,8,139,185,153,194,121,6]",-6,-3,1,0,0,0,143,143,128,1,,,,,,,,,,,,,,,,,,,,,,,
,,,,,,,,,,,,,,,,,,,,,,,,,,,,,,,,,,,,,,,,,,,59858eab7678a6000110e4d6,5fe19205d71cab4173dc21f5,2020-12-22_07h28.31.583,FlowerSimilarity_Experiment,2020.1.2,Win32,60,5fe17d4a51f3a9c1a60f9869,,,,,,,,,,,,,,,,,,,8,PF,,7,1.242,,,,,,,,,,,,,,,,,,,,,,,,,,,,,,,,,,49,109,1,0,0,response1disk,1,145,-18,10,1,0,0,rectangle,-18,10,1,0,0,0,7,"[93,322,36,175,207,263,291,182,199,75,171,21,282,8,139,185,153,194,121,6]",-18,10,1,0,0,0,144,144,57,1,,,,,,,,,,,,,,,,,,,,,,,
,,,,,,,,,,,,,,,,,,,,,,,,,,,,,,,,,,,,,,,,,,,59858eab7678a6000110e4d6,5fe19205d71cab4173dc21f5,2020-12-22_07h28.31.583,FlowerSimilarity_Experiment,2020.1.2,Win32,60,5fe17d4a51f3a9c1a60f9869,,,,,,,,,,,,,,,,,,,5,FF,,7,0.916,,,,,,,,,,,,,,,,,,,,,,,,,,,,,,,,,,44,106,1,0,0,response1disk,1,146,-1,10,1,0,0,rectangle,-1,10,1,0,0,0,7,"[93,322,36,175,207,263,291,182,199,75,171,21,282,8,139,185,153,194,121,6]",-1,10,1,0,0,0,145,145,131,1,,,,,,,,,,,,,,,,,,,,,,,
,,,,,,,,,,,,,,,,,,,,,,,,,,,,,,,,,,,,,,,,,,,59858eab7678a6000110e4d6,5fe19205d71cab4173dc21f5,2020-12-22_07h28.31.583,FlowerSimilarity_Experiment,2020.1.2,Win32,60,5fe17d4a51f3a9c1a60f9869,,,,,,,,,,,,,,,,,,,5,FF,,4,1.099,,,,,,,,,,,,,,,,,,,,,,,,,,,,,,,,,,41,-77,1,0,0,response3disk,3,147,-6,-8,1,0,0,rectangle,-6,-8,1,0,0,0,7,"[93,322,36,175,207,263,291,182,199,75,171,21,282,8,139,185,153,194,121,6]",-6,-8,1,0,0,0,146,146,25,1,,,,,,,,,,,,,,,,,,,,,,,
,,,,,,,,,,,,,,,,,,,,,,,,,,,,,,,,,,,,,,,,,,,59858eab7678a6000110e4d6,5fe19205d71cab4173dc21f5,2020-12-22_07h28.31.583,FlowerSimilarity_Experiment,2020.1.2,Win32,60,5fe17d4a51f3a9c1a60f9869,,,,,,,,,,,,,,,,,,,9,PF,,4,0.8,,,,,,,,,,,,,,,,,,,,,,,,,,,,,,,,,,42,-86,1,0,0,response3disk,3,148,4,-2,1,0,0,rectangle,4,-2,1,0,0,0,3,"[93,322,36,175,207,263,291,182,199,75,171,21,282,8,139,185,153,194,121,6]",4,-2,1,0,0,0,147,147,119,1,,,,,,,,,,,,,,,,,,,,,,,
,,,,,,,,,,,,,,,,,,,,,,,,,,,,,,,,,,,,,,,,,,,59858eab7678a6000110e4d6,5fe19205d71cab4173dc21f5,2020-12-22_07h28.31.583,FlowerSimilarity_Experiment,2020.1.2,Win32,60,5fe17d4a51f3a9c1a60f9869,,,,,,,,,,,,,,,,,,,1,FF,,6,1.37,,,,,,,,,,,,,,,,,,,,,,,,,,,,,,,,,,94,54,1,0,0,response1disk,3,149,2,11,1,0,0,rectangle,2,11,1,0,0,0,0,"[93,322,36,175,207,263,291,182,199,75,171,21,282,8,139,185,153,194,121,6]",2,11,1,0,0,0,148,148,99,1,,,,,,,,,,,,,,,,,,,,,,,
,,,,,,,,,,,,,,,,,,,,,,,,,,,,,,,,,,,,,,,,,,,59858eab7678a6000110e4d6,5fe19205d71cab4173dc21f5,2020-12-22_07h28.31.583,FlowerSimilarity_Experiment,2020.1.2,Win32,60,5fe17d4a51f3a9c1a60f9869,,,,,,,,,,,,,,,,,,,6,PF,,2,1.334,,,,,,,,,,,,,,,,,,,,,,,,,,,,,,,,,,-103,-40,1,0,0,response5disk,9,150,4,10,1,0,0,rectangle,4,10,1,0,0,0,5,"[93,322,36,175,207,263,291,182,199,75,171,21,282,8,139,185,153,194,121,6]",4,10,1,0,0,0,149,149,45,1,,,,,,,,,,,,,,,,,,,,,,,
,,,,,,,,,,,,,,,,,,,,,,,,,,,,,,,,,,,,,,,,,,,59858eab7678a6000110e4d6,5fe19205d71cab4173dc21f5,2020-12-22_07h28.31.583,FlowerSimilarity_Experiment,2020.1.2,Win32,60,5fe17d4a51f3a9c1a60f9869,,,,,,,,,,,,,,,,,,,5,FF,,3,1.294,,,,,,,,,,,,,,,,,,,,,,,,,,,,,,,,,,-38,-80,1,0,0,response5disk,8,151,-6,2,1,0,0,rectangle,-6,2,1,0,0,0,5,"[93,322,36,175,207,263,291,182,199,75,171,21,282,8,139,185,153,194,121,6]",-6,2,1,0,0,0,150,150,16,1,,,,,,,,,,,,,,,,,,,,,,,
,,,,,,,,,,,,,,,,,,,,,,,,,,,,,,,,,,,,,,,,,,,59858eab7678a6000110e4d6,5fe19205d71cab4173dc21f5,2020-12-22_07h28.31.583,FlowerSimilarity_Experiment,2020.1.2,Win32,60,5fe17d4a51f3a9c1a60f9869,,,,,,,,,,,,,,,,,,,6,FF,,0,0.926,,,,,,,,,,,,,,,,,,,,,,,,,,,,,,,,,,-46,114,1,0,0,response7disk,6,152,-17,10,1,0,0,rectangle,-17,10,1,0,0,0,7,"[93,322,36,175,207,263,291,182,199,75,171,21,282,8,139,185,153,194,121,6]",-17,10,1,0,0,0,151,151,91,1,,,,,,,,,,,,,,,,,,,,,,,
,,,,,,,,,,,,,,,,,,,,,,,,,,,,,,,,,,,,,,,,,,,59858eab7678a6000110e4d6,5fe19205d71cab4173dc21f5,2020-12-22_07h28.31.583,FlowerSimilarity_Experiment,2020.1.2,Win32,60,5fe17d4a51f3a9c1a60f9869,,,,,,,,,,,,,,,,,,,3,PF,,7,2.217,,,,,,,,,,,,,,,,,,,,,,,,,,,,,,,,,,44,110,1,0,0,response1disk,1,153,-33,16,1,0,0,rectangle,38,-88,1,0,0,4,4,"[93,322,36,175,207,263,291,182,199,75,171,21,282,8,139,185,153,194,121,6]",-14,-2,1,0,0,0,152,152,96,1,response3disk_3,rectangle,,,,,,,,,,,,,,,,,,,,,
,,,,,,,,,,,,,,,,,,,,,,,,,,,,,,,,,,,,,,,,,,,59858eab7678a6000110e4d6,5fe19205d71cab4173dc21f5,2020-12-22_07h28.31.583,FlowerSimilarity_Experiment,2020.1.2,Win32,60,5fe17d4a51f3a9c1a60f9869,,,,,,,,,,,,,,,,,,,2,PF,,5,10.017,,,,,,,,,,,,,,,,,,,,,,,,,,,,,,,,,,76,-50,1,0,0,response3disk,1,154,-4,-3,1,0,0,rectangle,-4,-3,1,0,0,4,7,"[93,322,36,175,207,263,291,182,199,75,171,21,282,8,139,185,153,194,121,6]",-4,-3,1,0,0,0,153,153,9,1,,,,,,,,,,,,,,,,,,,,,,,
,,,,,,,,,,,,,,,,,,,,,,,,,,,,,,,,,,,,,,,,,,,59858eab7678a6000110e4d6,5fe19205d71cab4173dc21f5,2020-12-22_07h28.31.583,FlowerSimilarity_Experiment,2020.1.2,Win32,60,5fe17d4a51f3a9c1a60f9869,,,,,,,,,,,,,,,,,,,8,PF,,6,1.983,,,,,,,,,,,,,,,,,,,,,,,,,,,,,,,,,,86,45,1,0,0,response1disk,3,155,-2,-5,1,0,0,rectangle,-2,-5,1,0,0,4,1,"[93,322,36,175,207,263,291,182,199,75,171,21,282,8,139,185,153,194,121,6]",-2,-5,1,0,0,0,154,154,71,1,,,,,,,,,,,,,,,,,,,,,,,
,,,,,,,,,,,,,,,,,,,,,,,,,,,,,,,,,,,,,,,,,,,59858eab7678a6000110e4d6,5fe19205d71cab4173dc21f5,2020-12-22_07h28.31.583,FlowerSimilarity_Experiment,2020.1.2,Win32,60,5fe17d4a51f3a9c1a60f9869,,,,,,,,,,,,,,,,,,,6,PF,,7,1.159,,,,,,,,,,,,,,,,,,,,,,,,,,,,,,,,,,54,90,1,0,0,response1disk,8,156,2,13,1,0,0,rectangle,2,13,1,0,0,4,1,"[93,322,36,175,207,263,291,182,199,75,171,21,282,8,139,185,153,194,121,6]",2,13,1,0,0,0,155,155,64,1,,,,,,,,,,,,,,,,,,,,,,,
,,,,,,,,,,,,,,,,,,,,,,,,,,,,,,,,,,,,,,,,,,,59858eab7678a6000110e4d6,5fe19205d71cab4173dc21f5,2020-12-22_07h28.31.583,FlowerSimilarity_Experiment,2020.1.2,Win32,60,5fe17d4a51f3a9c1a60f9869,,,,,,,,,,,,,,,,,,,3,FF,,5,3.883,,,,,,,,,,,,,,,,,,,,,,,,,,,,,,,,,,110,-46,1,0,0,response3disk,1,157,4,-2,1,0,0,rectangle,4,-2,1,0,0,4,5,"[93,322,36,175,207,263,291,182,199,75,171,21,282,8,139,185,153,194,121,6]",4,-2,1,0,0,0,156,156,125,1,,,,,,,,,,,,,,,,,,,,,,,
,,,,,,,,,,,,,,,,,,,,,,,,,,,,,,,,,,,,,,,,,,,59858eab7678a6000110e4d6,5fe19205d71cab4173dc21f5,2020-12-22_07h28.31.583,FlowerSimilarity_Experiment,2020.1.2,Win32,60,5fe17d4a51f3a9c1a60f9869,,,,,,,,,,,,,,,,,,,7,FF,,4,1.461,,,,,,,,,,,,,,,,,,,,,,,,,,,,,,,,,,47,-86,1,0,0,response3disk,8,158,7,-8,1,0,0,rectangle,7,-8,1,0,0,4,5,"[93,322,36,175,207,263,291,182,199,75,171,21,282,8,139,185,153,194,121,6]",7,-8,1,0,0,0,157,157,97,1,,,,,,,,,,,,,,,,,,,,,,,
,,,,,,,,,,,,,,,,,,,,,,,,,,,,,,,,,,,,,,,,,,,59858eab7678a6000110e4d6,5fe19205d71cab4173dc21f5,2020-12-22_07h28.31.583,FlowerSimilarity_Experiment,2020.1.2,Win32,60,5fe17d4a51f3a9c1a60f9869,,,,,,,,,,,,,,,,,,,7,FF,,6,0.96,,,,,,,,,,,,,,,,,,,,,,,,,,,,,,,,,,103,43,1,0,0,response1disk,6,159,6,-11,1,0,0,rectangle,6,-11,1,0,0,4,4,"[93,322,36,175,207,263,291,182,199,75,171,21,282,8,139,185,153,194,121,6]",6,-11,1,0,0,0,158,158,31,1,,,,,,,,,,,,,,,,,,,,,,,
,,,,,,,,,,,,,,,,,,,,,,,,,,,,,,,,,,,,,,,,,,,59858eab7678a6000110e4d6,5fe19205d71cab4173dc21f5,2020-12-22_07h28.31.583,FlowerSimilarity_Experiment,2020.1.2,Win32,60,5fe17d4a51f3a9c1a60f9869,,,,,,,,,,,,,,,,,,,7,PF,,0,0.917,,,,,,,,,,,,,,,,,,,,,,,,,,,,,,,,,,-63,117,1,0,0,response7disk,3,160,-31,3,1,0,0,rectangle,-31,3,1,0,0,4,6,"[93,322,36,175,207,263,291,182,199,75,171,21,282,8,139,185,153,194,121,6]",-31,3,1,0,0,0,159,159,81,1,,,,,,,,,,,,,,,,,,,,,,,
,,,,,,,,,,,,,,,,,,,,,,,,,,,,,,,,,,,,,,,,,,,59858eab7678a6000110e4d6,5fe19205d71cab4173dc21f5,2020-12-22_07h28.31.583,FlowerSimilarity_Experiment,2020.1.2,Win32,60,5fe17d4a51f3a9c1a60f9869,,,,,,,,,,,,,,,,,,,3,FF,,3,1.258,,,,,,,,,,,,,,,,,,,,,,,,,,,,,,,,,,-42,-82,1,0,0,response5disk,8,161,2,-6,1,0,0,rectangle,2,-6,1,0,0,4,6,"[93,322,36,175,207,263,291,182,199,75,171,21,282,8,139,185,153,194,121,6]",2,-6,1,0,0,0,160,160,44,1,,,,,,,,,,,,,,,,,,,,,,,
,,,,,,,,,,,,,,,,,,,,,,,,,,,,,,,,,,,,,,,,,,,59858eab7678a6000110e4d6,5fe19205d71cab4173dc21f5,2020-12-22_07h28.31.583,FlowerSimilarity_Experiment,2020.1.2,Win32,60,5fe17d4a51f3a9c1a60f9869,,,,,,,,,,,,,,,,,,,4,FF,,3,1.347,,,,,,,,,,,,,,,,,,,,,,,,,,,,,,,,,,-50,-74,1,0,0,response5disk,2,162,20,3,1,0,0,rectangle,20,3,1,0,0,4,3,"[93,322,36,175,207,263,291,182,199,75,171,21,282,8,139,185,153,194,121,6]",20,3,1,0,0,0,161,161,13,1,,,,,,,,,,,,,,,,,,,,,,,
,,,,,,,,,,,,,,,,,,,,,,,,,,,,,,,,,,,,,,,,,,,59858eab7678a6000110e4d6,5fe19205d71cab4173dc21f5,2020-12-22_07h28.31.583,FlowerSimilarity_Experiment,2020.1.2,Win32,60,5fe17d4a51f3a9c1a60f9869,,,,,,,,,,,,,,,,,,,,,,,,,,,,,,,,,,,,,,,,,,,,,,,,,,,,,,,,,,,,,,,,,,,,,,,,,,,,,,,,,,,,,,,,,,,0,0,0,0,1,,,,,,,,,,,,,,,,
,,,,,,,,,,,,,,,,,,,,,,,,,,,,,,,,,,,,,,,,,,,59858eab7678a6000110e4d6,5fe19205d71cab4173dc21f5,2020-12-22_07h28.31.583,FlowerSimilarity_Experiment,2020.1.2,Win32,60,5fe17d4a51f3a9c1a60f9869,,,,,,,,,,,,,,,,,,,4,PF,,5,1.135,,,,,,,,,,,,,,,,,,,,,,,,,,,,,,,,,,86,-48,1,0,0,response3disk,3,163,10,-11,1,0,0,rectangle,10,-11,1,0,0,4,1,"[93,322,36,175,207,263,291,182,199,75,171,21,282,8,139,185,153,194,121,6]",10,-11,1,0,0,0,0,0,89,1,,,,,,,,,,,,,,,,,,,,,,,
,,,,,,,,,,,,,,,,,,,,,,,,,,,,,,,,,,,,,,,,,,,59858eab7678a6000110e4d6,5fe19205d71cab4173dc21f5,2020-12-22_07h28.31.583,FlowerSimilarity_Experiment,2020.1.2,Win32,60,5fe17d4a51f3a9c1a60f9869,,,,,,,,,,,,,,,,,,,4,PF,,7,7.174,,,,,,,,,,,,,,,,,,,,,,,,,,,,,,,,,,50,90,1,0,0,response1disk,2,164,4,3,1,0,0,rectangle,4,3,1,0,0,4,5,"[93,322,36,175,207,263,291,182,199,75,171,21,282,8,139,185,153,194,121,6]",4,3,1,0,0,0,1,1,108,1,,,,,,,,,,,,,,,,,,,,,,,
,,,,,,,,,,,,,,,,,,,,,,,,,,,,,,,,,,,,,,,,,,,59858eab7678a6000110e4d6,5fe19205d71cab4173dc21f5,2020-12-22_07h28.31.583,FlowerSimilarity_Experiment,2020.1.2,Win32,60,5fe17d4a51f3a9c1a60f9869,,,,,,,,,,,,,,,,,,,4,FF,,6,1.458,,,,,,,,,,,,,,,,,,,,,,,,,,,,,,,,,,97,29,1,0,0,response1disk,5,165,7,-14,1,0,0,rectangle,7,-14,1,0,0,4,5,"[93,322,36,175,207,263,291,182,199,75,171,21,282,8,139,185,153,194,121,6]",7,-14,1,0,0,0,2,2,116,1,,,,,,,,,,,,,,,,,,,,,,,
,,,,,,,,,,,,,,,,,,,,,,,,,,,,,,,,,,,,,,,,,,,59858eab7678a6000110e4d6,5fe19205d71cab4173dc21f5,2020-12-22_07h28.31.583,FlowerSimilarity_Experiment,2020.1.2,Win32,60,5fe17d4a51f3a9c1a60f9869,,,,,,,,,,,,,,,,,,,4,PF,,4,3.917,,,,,,,,,,,,,,,,,,,,,,,,,,,,,,,,,,79,-94,1,0,0,response3disk,7,166,9,5,1,0,0,rectangle,9,5,1,0,0,4,0,"[93,322,36,175,207,263,291,182,199,75,171,21,282,8,139,185,153,194,121,6]",9,5,1,0,0,0,3,3,38,1,,,,,,,,,,,,,,,,,,,,,,,
,,,,,,,,,,,,,,,,,,,,,,,,,,,,,,,,,,,,,,,,,,,59858eab7678a6000110e4d6,5fe19205d71cab4173dc21f5,2020-12-22_07h28.31.583,FlowerSimilarity_Experiment,2020.1.2,Win32,60,5fe17d4a51f3a9c1a60f9869,,,,,,,,,,,,,,,,,,,9,PF,,3,1.506,,,,,,,,,,,,,,,,,,,,,,,,,,,,,,,,,,-42,-86,1,0,0,response5disk,6,167,2,3,1,0,0,rectangle,2,3,1,0,0,4,4,"[93,322,36,175,207,263,291,182,199,75,171,21,282,8,139,185,153,194,121,6]",2,3,1,0,0,0,4,4,148,1,,,,,,,,,,,,,,,,,,,,,,,
,,,,,,,,,,,,,,,,,,,,,,,,,,,,,,,,,,,,,,,,,,,59858eab7678a6000110e4d6,5fe19205d71cab4173dc21f5,2020-12-22_07h28.31.583,FlowerSimilarity_Experiment,2020.1.2,Win32,60,5fe17d4a51f3a9c1a60f9869,,,,,,,,,,,,,,,,,,,7,PF,,5,3.37,,,,,,,,,,,,,,,,,,,,,,,,,,,,,,,,,,81,-26,1,0,0,response3disk,9,168,25,5,1,0,0,rectangle,25,5,1,0,0,4,5,"[93,322,36,175,207,263,291,182,199,75,171,21,282,8,139,185,153,194,121,6]",25,5,1,0,0,0,5,5,10,1,,,,,,,,,,,,,,,,,,,,,,,
,,,,,,,,,,,,,,,,,,,,,,,,,,,,,,,,,,,,,,,,,,,59858eab7678a6000110e4d6,5fe19205d71cab4173dc21f5,2020-12-22_07h28.31.583,FlowerSimilarity_Experiment,2020.1.2,Win32,60,5fe17d4a51f3a9c1a60f9869,,,,,,,,,,,,,,,,,,,1,FF,,5,3.151,,,,,,,,,,,,,,,,,,,,,,,,,,,,,,,,,,126,-45,1,0,0,response3disk,6,169,7,5,1,0,0,rectangle,7,5,1,0,0,4,5,"[93,322,36,175,207,263,291,182,199,75,171,21,282,8,139,185,153,194,121,6]",7,5,1,0,0,0,6,6,58,1,,,,,,,,,,,,,,,,,,,,,,,
,,,,,,,,,,,,,,,,,,,,,,,,,,,,,,,,,,,,,,,,,,,59858eab7678a6000110e4d6,5fe19205d71cab4173dc21f5,2020-12-22_07h28.31.583,FlowerSimilarity_Experiment,2020.1.2,Win32,60,5fe17d4a51f3a9c1a60f9869,,,,,,,,,,,,,,,,,,,3,PF,,0,0.967,,,,,,,,,,,,,,,,,,,,,,,,,,,,,,,,,,-25,70,1,0,0,response7disk,7,170,-1,-11,1,0,0,rectangle,-1,-11,1,0,0,4,1,"[93,322,36,175,207,263,291,182,199,75,171,21,282,8,139,185,153,194,121,6]",-1,-11,1,0,0,0,7,7,41,1,,,,,,,,,,,,,,,,,,,,,,,
,,,,,,,,,,,,,,,,,,,,,,,,,,,,,,,,,,,,,,,,,,,59858eab7678a6000110e4d6,5fe19205d71cab4173dc21f5,2020-12-22_07h28.31.583,FlowerSimilarity_Experiment,2020.1.2,Win32,60,5fe17d4a51f3a9c1a60f9869,,,,,,,,,,,,,,,,,,,4,FF,,3,1.251,,,,,,,,,,,,,,,,,,,,,,,,,,,,,,,,,,-47,-77,1,0,0,response5disk,3,171,-17,8,1,0,0,rectangle,-95,32,1,0,0,1,1,"[93,322,36,175,207,263,291,182,199,75,171,21,282,8,139,185,153,194,121,6]",18,-14,1,0,0,0,8,8,77,1,response7disk_3,rectangle,,,,,,,,,,,,,,,,,,,,,
,,,,,,,,,,,,,,,,,,,,,,,,,,,,,,,,,,,,,,,,,,,59858eab7678a6000110e4d6,5fe19205d71cab4173dc21f5,2020-12-22_07h28.31.583,FlowerSimilarity_Experiment,2020.1.2,Win32,60,5fe17d4a51f3a9c1a60f9869,,,,,,,,,,,,,,,,,,,2,PF,,3,1.485,,,,,,,,,,,,,,,,,,,,,,,,,,,,,,,,,,-50,-77,1,0,0,response5disk,3,172,-2,-6,1,0,0,rectangle,-2,-6,1,0,0,1,7,"[93,322,36,175,207,263,291,182,199,75,171,21,282,8,139,185,153,194,121,6]",-2,-6,1,0,0,0,9,9,69,1,,,,,,,,,,,,,,,,,,,,,,,
,,,,,,,,,,,,,,,,,,,,,,,,,,,,,,,,,,,,,,,,,,,59858eab7678a6000110e4d6,5fe19205d71cab4173dc21f5,2020-12-22_07h28.31.583,FlowerSimilarity_Experiment,2020.1.2,Win32,60,5fe17d4a51f3a9c1a60f9869,,,,,,,,,,,,,,,,,,,8,FF,,4,1.219,,,,,,,,,,,,,,,,,,,,,,,,,,,,,,,,,,50,-90,1,0,0,response3disk,3,173,6,-5,1,0,0,rectangle,6,-5,1,0,0,1,1,"[93,322,36,175,207,263,291,182,199,75,171,21,282,8,139,185,153,194,121,6]",6,-5,1,0,0,0,10,10,154,1,,,,,,,,,,,,,,,,,,,,,,,
,,,,,,,,,,,,,,,,,,,,,,,,,,,,,,,,,,,,,,,,,,,59858eab7678a6000110e4d6,5fe19205d71cab4173dc21f5,2020-12-22_07h28.31.583,FlowerSimilarity_Experiment,2020.1.2,Win32,60,5fe17d4a51f3a9c1a60f9869,,,,,,,,,,,,,,,,,,,8,FF,,5,2.381,,,,,,,,,,,,,,,,,,,,,,,,,,,,,,,,,,78,-46,1,0,0,response3disk,2,174,-1,-6,1,0,0,rectangle,-1,-6,1,0,0,1,1,"[93,322,36,175,207,263,291,182,199,75,171,21,282,8,139,185,153,194,121,6]",-1,-6,1,0,0,0,11,11,22,1,,,,,,,,,,,,,,,,,,,,,,,
,,,,,,,,,,,,,,,,,,,,,,,,,,,,,,,,,,,,,,,,,,,59858eab7678a6000110e4d6,5fe19205d71cab4173dc21f5,2020-12-22_07h28.31.583,FlowerSimilarity_Experiment,2020.1.2,Win32,60,5fe17d4a51f3a9c1a60f9869,,,,,,,,,,,,,,,,,,,4,FF,,6,1.719,,,,,,,,,,,,,,,,,,,,,,,,,,,,,,,,,,122,37,1,0,0,response1disk,6,175,-14,0,1,0,0,rectangle,95,-45,1,0,0,5,5,"[93,322,36,175,207,263,291,182,199,75,171,21,282,8,139,185,153,194,121,6]",25,-6,1,0,0,0,12,12,122,1,response3disk_3,rectangle,,,,,,,,,,,,,,,,,,,,,
,,,,,,,,,,,,,,,,,,,,,,,,,,,,,,,,,,,,,,,,,,,59858eab7678a6000110e4d6,5fe19205d71cab4173dc21f5,2020-12-22_07h28.31.583,FlowerSimilarity_Experiment,2020.1.2,Win32,60,5fe17d4a51f3a9c1a60f9869,,,,,,,,,,,,,,,,,,,2,PF,,4,1.902,,,,,,,,,,,,,,,,,,,,,,,,,,,,,,,,,,58,-90,1,0,0,response3disk,4,176,-10,-6,1,0,0,rectangle,-10,-6,1,0,0,5,3,"[93,322,36,175,207,263,291,182,199,75,171,21,282,8,139,185,153,194,121,6]",-10,-6,1,0,0,0,13,13,127,1,,,,,,,,,,,,,,,,,,,,,,,
,,,,,,,,,,,,,,,,,,,,,,,,,,,,,,,,,,,,,,,,,,,59858eab7678a6000110e4d6,5fe19205d71cab4173dc21f5,2020-12-22_07h28.31.583,FlowerSimilarity_Experiment,2020.1.2,Win32,60,5fe17d4a51f3a9c1a60f9869,,,,,,,,,,,,,,,,,,,8,PF,,5,1.123,,,,,,,,,,,,,,,,,,,,,,,,,,,,,,,,,,87,-46,1,0,0,response3disk,2,177,-2,-11,1,0,0,rectangle,-2,-11,1,0,0,5,5,"[93,322,36,175,207,263,291,182,199,75,171,21,282,8,139,185,153,194,121,6]",-2,-11,1,0,0,0,14,14,83,1,,,,,,,,,,,,,,,,,,,,,,,
,,,,,,,,,,,,,,,,,,,,,,,,,,,,,,,,,,,,,,,,,,,59858eab7678a6000110e4d6,5fe19205d71cab4173dc21f5,2020-12-22_07h28.31.583,FlowerSimilarity_Experiment,2020.1.2,Win32,60,5fe17d4a51f3a9c1a60f9869,,,,,,,,,,,,,,,,,,,6,FF,,6,1.469,,,,,,,,,,,,,,,,,,,,,,,,,,,,,,,,,,106,24,1,0,0,response1disk,8,178,20,5,1,0,0,rectangle,20,5,1,0,0,5,4,"[93,322,36,175,207,263,291,182,199,75,171,21,282,8,139,185,153,194,121,6]",20,5,1,0,0,0,15,15,133,1,,,,,,,,,,,,,,,,,,,,,,,
,,,,,,,,,,,,,,,,,,,,,,,,,,,,,,,,,,,,,,,,,,,59858eab7678a6000110e4d6,5fe19205d71cab4173dc21f5,2020-12-22_07h28.31.583,FlowerSimilarity_Experiment,2020.1.2,Win32,60,5fe17d4a51f3a9c1a60f9869,,,,,,,,,,,,,,,,,,,4,PF,,7,1.101,,,,,,,,,,,,,,,,,,,,,,,,,,,,,,,,,,33,93,1,0,0,response1disk,8,179,-15,13,1,0,0,rectangle,-15,13,1,0,0,5,0,"[93,322,36,175,207,263,291,182,199,75,171,21,282,8,139,185,153,194,121,6]",-15,13,1,0,0,0,16,16,124,1,,,,,,,,,,,,,,,,,,,,,,,
,,,,,,,,,,,,,,,,,,,,,,,,,,,,,,,,,,,,,,,,,,,59858eab7678a6000110e4d6,5fe19205d71cab4173dc21f5,2020-12-22_07h28.31.583,FlowerSimilarity_Experiment,2020.1.2,Win32,60,5fe17d4a51f3a9c1a60f9869,,,,,,,,,,,,,,,,,,,3,FF,,7,1.474,,,,,,,,,,,,,,,,,,,,,,,,,,,,,,,,,,54,91,1,0,0,response1disk,4,180,-17,-10,1,0,0,rectangle,-17,-10,1,0,0,5,5,"[93,322,36,175,207,263,291,182,199,75,171,21,282,8,139,185,153,194,121,6]",-17,-10,1,0,0,0,17,17,110,1,,,,,,,,,,,,,,,,,,,,,,,
,,,,,,,,,,,,,,,,,,,,,,,,,,,,,,,,,,,,,,,,,,,59858eab7678a6000110e4d6,5fe19205d71cab4173dc21f5,2020-12-22_07h28.31.583,FlowerSimilarity_Experiment,2020.1.2,Win32,60,5fe17d4a51f3a9c1a60f9869,,,,,,,,,,,,,,,,,,,1,FF,,7,1.046,,,,,,,,,,,,,,,,,,,,,,,,,,,,,,,,,,60,96,1,0,0,response1disk,5,181,-7,-8,1,0,0,rectangle,-7,-8,1,0,0,5,2,"[93,322,36,175,207,263,291,182,199,75,171,21,282,8,139,185,153,194,121,6]",-7,-8,1,0,0,0,18,18,82,1,,,,,,,,,,,,,,,,,,,,,,,
,,,,,,,,,,,,,,,,,,,,,,,,,,,,,,,,,,,,,,,,,,,59858eab7678a6000110e4d6,5fe19205d71cab4173dc21f5,2020-12-22_07h28.31.583,FlowerSimilarity_Experiment,2020.1.2,Win32,60,5fe17d4a51f3a9c1a60f9869,,,,,,,,,,,,,,,,,,,6,PF,,7,1.011,,,,,,,,,,,,,,,,,,,,,,,,,,,,,,,,,,79,106,1,0,0,response1disk,4,182,-4,0,1,0,0,rectangle,-78,-53,1,0,0,5,2,"[93,322,36,175,207,263,291,182,199,75,171,21,282,8,139,185,153,194,121,6]",-2,13,1,0,0,0,19,19,33,1,response5disk_3,rectangle,,,,,,,,,,,,,,,,,,,,,
,,,,,,,,,,,,,,,,,,,,,,,,,,,,,,,,,,,,,,,,,,,59858eab7678a6000110e4d6,5fe19205d71cab4173dc21f5,2020-12-22_07h28.31.583,FlowerSimilarity_Experiment,2020.1.2,Win32,60,5fe17d4a51f3a9c1a60f9869,,,,,,,,,,,,,,,,,,,6,FF,,3,1.408,,,,,,,,,,,,,,,,,,,,,,,,,,,,,,,,,,-54,-78,1,0,0,response5disk,9,183,-1,3,1,0,0,rectangle,-1,3,1,0,0,5,5,"[93,322,36,175,207,263,291,182,199,75,171,21,282,8,139,185,153,194,121,6]",-1,3,1,0,0,0,20,20,160,1,,,,,,,,,,,,,,,,,,,,,,,
,,,,,,,,,,,,,,,,,,,,,,,,,,,,,,,,,,,,,,,,,,,59858eab7678a6000110e4d6,5fe19205d71cab4173dc21f5,2020-12-22_07h28.31.583,FlowerSimilarity_Experiment,2020.1.2,Win32,60,5fe17d4a51f3a9c1a60f9869,,,,,,,,,,,,,,,,,,,3,PF,,5,2.048,,,,,,,,,,,,,,,,,,,,,,,,,,,,,,,,,,87,-58,1,0,0,response3disk,6,184,-15,-3,1,0,0,rectangle,-15,-3,1,0,0,5,5,"[93,322,36,175,207,263,291,182,199,75,171,21,282,8,139,185,153,194,121,6]",-15,-3,1,0,0,0,21,21,47,1,,,,,,,,,,,,,,,,,,,,,,,
,,,,,,,,,,,,,,,,,,,,,,,,,,,,,,,,,,,,,,,,,,,59858eab7678a6000110e4d6,5fe19205d71cab4173dc21f5,2020-12-22_07h28.31.583,FlowerSimilarity_Experiment,2020.1.2,Win32,60,5fe17d4a51f3a9c1a60f9869,,,,,,,,,,,,,,,,,,,9,PF,,7,1.032,,,,,,,,,,,,,,,,,,,,,,,,,,,,,,,,,,52,99,1,0,0,response1disk,2,185,-18,-3,1,0,0,rectangle,-57,-101,1,0,0,3,3,"[93,322,36,175,207,263,291,182,199,75,171,21,282,8,139,185,153,194,121,6]",1,-2,1,0,0,0,22,22,157,1,response5disk_3,rectangle,,,,,,,,,,,,,,,,,,,,,
,,,,,,,,,,,,,,,,,,,,,,,,,,,,,,,,,,,,,,,,,,,59858eab7678a6000110e4d6,5fe19205d71cab4173dc21f5,2020-12-22_07h28.31.583,FlowerSimilarity_Experiment,2020.1.2,Win32,60,5fe17d4a51f3a9c1a60f9869,,,,,,,,,,,,,,,,,,,7,FF,,7,1.256,,,,,,,,,,,,,,,,,,,,,,,,,,,,,,,,,,66,77,1,0,0,response1disk,1,186,-2,16,1,0,0,rectangle,-2,16,1,0,0,3,3,"[93,322,36,175,207,263,291,182,199,75,171,21,282,8,139,185,153,194,121,6]",-2,16,1,0,0,0,23,23,132,1,,,,,,,,,,,,,,,,,,,,,,,
,,,,,,,,,,,,,,,,,,,,,,,,,,,,,,,,,,,,,,,,,,,59858eab7678a6000110e4d6,5fe19205d71cab4173dc21f5,2020-12-22_07h28.31.583,FlowerSimilarity_Experiment,2020.1.2,Win32,60,5fe17d4a51f3a9c1a60f9869,,,,,,,,,,,,,,,,,,,4,FF,,6,3.335,,,,,,,,,,,,,,,,,,,,,,,,,,,,,,,,,,102,40,1,0,0,response1disk,7,187,-23,5,1,0,0,rectangle,-23,5,1,0,0,3,7,"[93,322,36,175,207,263,291,182,199,75,171,21,282,8,139,185,153,194,121,6]",-23,5,1,0,0,0,24,24,87,1,,,,,,,,,,,,,,,,,,,,,,,
,,,,,,,,,,,,,,,,,,,,,,,,,,,,,,,,,,,,,,,,,,,59858eab7678a6000110e4d6,5fe19205d71cab4173dc21f5,2020-12-22_07h28.31.583,FlowerSimilarity_Experiment,2020.1.2,Win32,60,5fe17d4a51f3a9c1a60f9869,,,,,,,,,,,,,,,,,,,3,PF,,7,1.085,,,,,,,,,,,,,,,,,,,,,,,,,,,,,,,,,,31,90,1,0,0,response1disk,8,188,-6,14,1,0,0,rectangle,-6,14,1,0,0,3,4,"[93,322,36,175,207,263,291,182,199,75,171,21,282,8,139,185,153,194,121,6]",-6,14,1,0,0,0,25,25,3,1,,,,,,,,,,,,,,,,,,,,,,,
,,,,,,,,,,,,,,,,,,,,,,,,,,,,,,,,,,,,,,,,,,,59858eab7678a6000110e4d6,5fe19205d71cab4173dc21f5,2020-12-22_07h28.31.583,FlowerSimilarity_Experiment,2020.1.2,Win32,60,5fe17d4a51f3a9c1a60f9869,,,,,,,,,,,,,,,,,,,5,PF,,7,3.925,,,,,,,,,,,,,,,,,,,,,,,,,,,,,,,,,,38,93,1,0,0,response1disk,6,189,-10,2,1,0,0,rectangle,-10,2,1,0,0,3,4,"[93,322,36,175,207,263,291,182,199,75,171,21,282,8,139,185,153,194,121,6]",-10,2,1,0,0,0,26,26,103,1,,,,,,,,,,,,,,,,,,,,,,,
,,,,,,,,,,,,,,,,,,,,,,,,,,,,,,,,,,,,,,,,,,,59858eab7678a6000110e4d6,5fe19205d71cab4173dc21f5,2020-12-22_07h28.31.583,FlowerSimilarity_Experiment,2020.1.2,Win32,60,5fe17d4a51f3a9c1a60f9869,,,,,,,,,,,,,,,,,,,8,FF,,4,1.515,,,,,,,,,,,,,,,,,,,,,,,,,,,,,,,,,,41,-86,1,0,0,response3disk,5,190,2,-6,1,0,0,rectangle,2,-6,1,0,0,3,4,"[93,322,36,175,207,263,291,182,199,75,171,21,282,8,139,185,153,194,121,6]",2,-6,1,0,0,0,27,27,152,1,,,,,,,,,,,,,,,,,,,,,,,
,,,,,,,,,,,,,,,,,,,,,,,,,,,,,,,,,,,,,,,,,,,59858eab7678a6000110e4d6,5fe19205d71cab4173dc21f5,2020-12-22_07h28.31.583,FlowerSimilarity_Experiment,2020.1.2,Win32,60,5fe17d4a51f3a9c1a60f9869,,,,,,,,,,,,,,,,,,,4,FF,,0,0.934,,,,,,,,,,,,,,,,,,,,,,,,,,,,,,,,,,-31,128,1,0,0,response7disk,4,191,-14,-5,1,0,0,rectangle,-14,-5,1,0,0,3,5,"[93,322,36,175,207,263,291,182,199,75,171,21,282,8,139,185,153,194,121,6]",-14,-5,1,0,0,0,28,28,84,1,,,,,,,,,,,,,,,,,,,,,,,
,,,,,,,,,,,,,,,,,,,,,,,,,,,,,,,,,,,,,,,,,,,59858eab7678a6000110e4d6,5fe19205d71cab4173dc21f5,2020-12-22_07h28.31.583,FlowerSimilarity_Experiment,2020.1.2,Win32,60,5fe17d4a51f3a9c1a60f9869,,,,,,,,,,,,,,,,,,,6,FF,,7,0.981,,,,,,,,,,,,,,,,,,,,,,,,,,,,,,,,,,47,94,1,0,0,response1disk,4,192,-10,5,1,0,0,rectangle,-10,5,1,0,0,3,3,"[93,322,36,175,207,263,291,182,199,75,171,21,282,8,139,185,153,194,121,6]",-10,5,1,0,0,0,29,29,56,1,,,,,,,,,,,,,,,,,,,,,,,
,,,,,,,,,,,,,,,,,,,,,,,,,,,,,,,,,,,,,,,,,,,59858eab7678a6000110e4d6,5fe19205d71cab4173dc21f5,2020-12-22_07h28.31.583,FlowerSimilarity_Experiment,2020.1.2,Win32,60,5fe17d4a51f3a9c1a60f9869,,,,,,,,,,,,,,,,,,,9,PF,,7,0.796,,,,,,,,,,,,,,,,,,,,,,,,,,,,,,,,,,57,99,1,0,0,response1disk,4,193,-1,2,1,0,0,rectangle,-1,2,1,0,0,3,1,"[93,322,36,175,207,263,291,182,199,75,171,21,282,8,139,185,153,194,121,6]",-1,2,1,0,0,0,30,30,114,1,,,,,,,,,,,,,,,,,,,,,,,
,,,,,,,,,,,,,,,,,,,,,,,,,,,,,,,,,,,,,,,,,,,59858eab7678a6000110e4d6,5fe19205d71cab4173dc21f5,2020-12-22_07h28.31.583,FlowerSimilarity_Experiment,2020.1.2,Win32,60,5fe17d4a51f3a9c1a60f9869,,,,,,,,,,,,,,,,,,,2,FF,,5,1.1,,,,,,,,,,,,,,,,,,,,,,,,,,,,,,,,,,86,-38,1,0,0,response3disk,3,194,14,3,1,0,0,rectangle,-95,48,1,0,0,1,1,"[93,322,36,175,207,263,291,182,199,75,171,21,282,8,139,185,153,194,121,6]",-14,-3,1,0,0,0,31,31,104,1,response7disk_3,rectangle,,,,,,,,,,,,,,,,,,,,,
,,,,,,,,,,,,,,,,,,,,,,,,,,,,,,,,,,,,,,,,,,,59858eab7678a6000110e4d6,5fe19205d71cab4173dc21f5,2020-12-22_07h28.31.583,FlowerSimilarity_Experiment,2020.1.2,Win32,60,5fe17d4a51f3a9c1a60f9869,,,,,,,,,,,,,,,,,,,3,PF,,0,1.074,,,,,,,,,,,,,,,,,,,,,,,,,,,,,,,,,,-46,106,1,0,0,response7disk,3,195,9,6,1,0,0,rectangle,9,6,1,0,0,1,2,"[93,322,36,175,207,263,291,182,199,75,171,21,282,8,139,185,153,194,121,6]",9,6,1,0,0,0,32,32,4,1,,,,,,,,,,,,,,,,,,,,,,,
,,,,,,,,,,,,,,,,,,,,,,,,,,,,,,,,,,,,,,,,,,,59858eab7678a6000110e4d6,5fe19205d71cab4173dc21f5,2020-12-22_07h28.31.583,FlowerSimilarity_Experiment,2020.1.2,Win32,60,5fe17d4a51f3a9c1a60f9869,,,,,,,,,,,,,,,,,,,3,FF,,3,1.304,,,,,,,,,,,,,,,,,,,,,,,,,,,,,,,,,,-57,-82,1,0,0,response5disk,2,196,-14,-2,1,0,0,rectangle,-14,-2,1,0,0,1,2,"[93,322,36,175,207,263,291,182,199,75,171,21,282,8,139,185,153,194,121,6]",-14,-2,1,0,0,0,33,33,93,1,,,,,,,,,,,,,,,,,,,,,,,
,,,,,,,,,,,,,,,,,,,,,,,,,,,,,,,,,,,,,,,,,,,59858eab7678a6000110e4d6,5fe19205d71cab4173dc21f5,2020-12-22_07h28.31.583,FlowerSimilarity_Experiment,2020.1.2,Win32,60,5fe17d4a51f3a9c1a60f9869,,,,,,,,,,,,,,,,,,,2,PF,,7,0.983,,,,,,,,,,,,,,,,,,,,,,,,,,,,,,,,,,65,98,1,0,0,response1disk,6,197,-9,-11,1,0,0,rectangle,-9,-11,1,0,0,1,4,"[93,322,36,175,207,263,291,182,199,75,171,21,282,8,139,185,153,194,121,6]",-9,-11,1,0,0,0,34,34,113,1,,,,,,,,,,,,,,,,,,,,,,,
,,,,,,,,,,,,,,,,,,,,,,,,,,,,,,,,,,,,,,,,,,,59858eab7678a6000110e4d6,5fe19205d71cab4173dc21f5,2020-12-22_07h28.31.583,FlowerSimilarity_Experiment,2020.1.2,Win32,60,5fe17d4a51f3a9c1a60f9869,,,,,,,,,,,,,,,,,,,7,FF,,0,0.904,,,,,,,,,,,,,,,,,,,,,,,,,,,,,,,,,,-20,99,1,0,0,response7disk,3,198,-18,10,1,0,0,rectangle,-18,10,1,0,0,1,0,"[93,322,36,175,207,263,291,182,199,75,171,21,282,8,139,185,153,194,121,6]",-18,10,1,0,0,0,35,35,73,1,,,,,,,,,,,,,,,,,,,,,,,
,,,,,,,,,,,,,,,,,,,,,,,,,,,,,,,,,,,,,,,,,,,59858eab7678a6000110e4d6,5fe19205d71cab4173dc21f5,2020-12-22_07h28.31.583,FlowerSimilarity_Experiment,2020.1.2,Win32,60,5fe17d4a51f3a9c1a60f9869,,,,,,,,,,,,,,,,,,,8,FF,,4,1.392,,,,,,,,,,,,,,,,,,,,,,,,,,,,,,,,,,46,-96,1,0,0,response3disk,6,199,-6,-5,1,0,0,rectangle,-25,-91,1,0,0,3,3,"[93,322,36,175,207,263,291,182,199,75,171,21,282,8,139,185,153,194,121,6]",-1,-6,1,0,0,0,36,36,37,1,response5disk_3,rectangle,,,,,,,,,,,,,,,,,,,,,
,,,,,,,,,,,,,,,,,,,,,,,,,,,,,,,,,,,,,,,,,,,59858eab7678a6000110e4d6,5fe19205d71cab4173dc21f5,2020-12-22_07h28.31.583,FlowerSimilarity_Experiment,2020.1.2,Win32,60,5fe17d4a51f3a9c1a60f9869,,,,,,,,,,,,,,,,,,,6,FF,,5,1.187,,,,,,,,,,,,,,,,,,,,,,,,,,,,,,,,,,82,-50,1,0,0,response3disk,1,200,-22,5,1,0,0,rectangle,-22,5,1,0,0,3,2,"[93,322,36,175,207,263,291,182,199,75,171,21,282,8,139,185,153,194,121,6]",-22,5,1,0,0,0,37,37,5,1,,,,,,,,,,,,,,,,,,,,,,,
,,,,,,,,,,,,,,,,,,,,,,,,,,,,,,,,,,,,,,,,,,,59858eab7678a6000110e4d6,5fe19205d71cab4173dc21f5,2020-12-22_07h28.31.583,FlowerSimilarity_Experiment,2020.1.2,Win32,60,5fe17d4a51f3a9c1a60f9869,,,,,,,,,,,,,,,,,,,1,PF,,7,0.934,,,,,,,,,,,,,,,,,,,,,,,,,,,,,,,,,,54,93,1,0,0,response1disk,8,201,-4,13,1,0,0,rectangle,-4,13,1,0,0,3,0,"[93,322,36,175,207,263,291,182,199,75,171,21,282,8,139,185,153,194,121,6]",-4,13,1,0,0,0,38,38,65,1,,,,,,,,,,,,,,,,,,,,,,,
,,,,,,,,,,,,,,,,,,,,,,,,,,,,,,,,,,,,,,,,,,,59858eab7678a6000110e4d6,5fe19205d71cab4173dc21f5,2020-12-22_07h28.31.583,FlowerSimilarity_Experiment,2020.1.2,Win32,60,5fe17d4a51f3a9c1a60f9869,,,,,,,,,,,,,,,,,,,5,PF,,7,1.961,,,,,,,,,,,,,,,,,,,,,,,,,,,,,,,,,,49,82,1,0,0,response1disk,1,202,2,8,1,0,0,rectangle,2,8,1,0,0,3,1,"[93,322,36,175,207,263,291,182,199,75,171,21,282,8,139,185,153,194,121,6]",2,8,1,0,0,0,39,39,159,1,,,,,,,,,,,,,,,,,,,,,,,
,,,,,,,,,,,,,,,,,,,,,,,,,,,,,,,,,,,,,,,,,,,59858eab7678a6000110e4d6,5fe19205d71cab4173dc21f5,2020-12-22_07h28.31.583,FlowerSimilarity_Experiment,2020.1.2,Win32,60,5fe17d4a51f3a9c1a60f9869,,,,,,,,,,,,,,,,,,,7,FF,,0,0.907,,,,,,,,,,,,,,,,,,,,,,,,,,,,,,,,,,-36,130,1,0,0,response7disk,7,203,-7,-8,1,0,0,rectangle,-7,-8,1,0,0,3,7,"[93,322,36,175,207,263,291,182,199,75,171,21,282,8,139,185,153,194,121,6]",-7,-8,1,0,0,0,40,40,34,1,,,,,,,,,,,,,,,,,,,,,,,
,,,,,,,,,,,,,,,,,,,,,,,,,,,,,,,,,,,,,,,,,,,59858eab7678a6000110e4d6,5fe19205d71cab4173dc21f5,2020-12-22_07h28.31.583,FlowerSimilarity_Experiment,2020.1.2,Win32,60,5fe17d4a51f3a9c1a60f9869,,,,,,,,,,,,,,,,,,,3,PF,,3,1.1,,,,,,,,,,,,,,,,,,,,,,,,,,,,,,,,,,-58,-102,1,0,0,response5disk,2,204,1,-2,1,0,0,rectangle,1,-2,1,0,0,3,2,"[93,322,36,175,207,263,291,182,199,75,171,21,282,8,139,185,153,194,121,6]",1,-2,1,0,0,0,41,41,36,1,,,,,,,,,,,,,,,,,,,,,,,
,,,,,,,,,,,,,,,,,,,,,,,,,,,,,,,,,,,,,,,,,,,59858eab7678a6000110e4d6,5fe19205d71cab4173dc21f5,2020-12-22_07h28.31.583,FlowerSimilarity_Experiment,2020.1.2,Win32,60,5fe17d4a51f3a9c1a60f9869,,,,,,,,,,,,,,,,,,,4,PF,,7,0.734,,,,,,,,,,,,,,,,,,,,,,,,,,,,,,,,,,79,120,1,0,0,response1disk,9,205,-4,5,1,0,0,rectangle,-4,5,1,0,0,3,3,"[93,322,36,175,207,263,291,182,199,75,171,21,282,8,139,185,153,194,121,6]",-4,5,1,0,0,0,42,42,75,1,,,,,,,,,,,,,,,,,,,,,,,
,,,,,,,,,,,,,,,,,,,,,,,,,,,,,,,,,,,,,,,,,,,59858eab7678a6000110e4d6,5fe19205d71cab4173dc21f5,2020-12-22_07h28.31.583,FlowerSimilarity_Experiment,2020.1.2,Win32,60,5fe17d4a51f3a9c1a60f9869,,,,,,,,,,,,,,,,,,,5,PF,,5,1.033,,,,,,,,,,,,,,,,,,,,,,,,,,,,,,,,,,84,-56,1,0,0,response3disk,5,206,-15,-10,1,0,0,rectangle,-15,-10,1,0,0,3,0,"[93,322,36,175,207,263,291,182,199,75,171,21,282,8,139,185,153,194,121,6]",-15,-10,1,0,0,0,43,43,94,1,,,,,,,,,,,,,,,,,,,,,,,
