key_resp.keys,key_resp.rt,key_resp_16.keys,key_resp_16.rt,key_resp_2.keys,key_resp_2.rt,X Scale,ratio_pxpermm,screen_size_x,screen_size_y,testsize,key_resp_3.keys,key_resp_3.rt,key_resp_4.keys,key_resp_4.rt,line_size,key_resp_5.keys,key_resp_5.rt,key_resp_6.keys,key_resp_6.rt,key_resp_8.keys,key_resp_8.rt,key_resp_7.keys,key_resp_7.rt,key_resp_12.keys,key_resp_12.rt,key_resp_11.keys,key_resp_11.rt,key_resp_18.keys,key_resp_18.rt,key_resp_21.keys,key_resp_21.rt,key_resp_13.keys,key_resp_13.rt,key_resp_19.keys,key_resp_19.rt,ballposx,viewer_distance,trials.thisRepN,trials.thisTrialN,trials.thisN,trials.thisIndex,trials.ran,participant,session,date,expName,psychopyVersion,OS,frameRate,study_id,viewerdistancecm,DVA_to_distance,radius_F,radius_P,r_F,R_P,key_resp_20.keys,key_resp_20.rt,key_resp_14.keys,key_resp_14.rt,key_resp_15.keys,key_resp_15.rt,key_resp_17.keys,key_resp_17.rt,key_resp_9.keys,key_resp_9.rt,key_resp_10.keys,key_resp_10.rt,Flower1,Ecc,Flower_2,similarity,response_time,mouse_5.x,mouse_5.y,mouse_5.leftButton,mouse_5.midButton,mouse_5.rightButton,mouse_5.clicked_name,mouse_10.x,mouse_10.y,mouse_10.leftButton,mouse_10.midButton,mouse_10.rightButton,mouse_10.clicked_name,mouse_7.x,mouse_7.y,mouse_7.leftButton,mouse_7.midButton,mouse_7.rightButton,catchnumberprac,mouse_6.x,mouse_6.y,mouse_6.leftButton,mouse_6.midButton,mouse_6.rightButton,duringprac.thisRepN,duringprac.thisTrialN,duringprac.thisN,duringprac.thisIndex,duringprac.ran,mouse_7.clicked_name,catchprac,mouse_6.clicked_name,key_resp_22.keys,key_resp_22.rt,mouse.x,mouse.y,mouse.leftButton,mouse.midButton,mouse.rightButton,mouse.clicked_name,Flower2,trialnumber,mouse_2.x,mouse_2.y,mouse_2.leftButton,mouse_2.midButton,mouse_2.rightButton,mouse_2.clicked_name,mouse_3.x,mouse_3.y,mouse_3.leftButton,mouse_3.midButton,mouse_3.rightButton,catchresponse,catchnumber,catchtrialorder,mouse_11.x,mouse_11.y,mouse_11.leftButton,mouse_11.midButton,mouse_11.rightButton,trials_2.thisRepN,trials_2.thisTrialN,trials_2.thisN,trials_2.thisIndex,trials_2.ran,mouse_3.clicked_name,mouse_11.clicked_name,trials_3.thisRepN,trials_3.thisTrialN,trials_3.thisN,trials_3.thisIndex,trials_3.ran,answer1,rt1,answer2,rt2,answer3,rt3,answer4,rt4,answer5,rt5,answer6,rt6,answer8,rt8,answer7,rt7
space,3.082245,space,12.25973,space,5.41905,38.5,3.85,498.7012987,280.5194805,1920,space,15.016295,space,11.80114,77,space,9.609185,space,4.603595,space,0.933855,space,6.092475,space,4.18623,space,6.6374,space,8.58743,space,5.554805,space,6.165875,return,3.715405,74.88,749.8840645,0,0,0,0,1,5bc07e3768529a00011d148c,5fe19237c9707dbdf177b68e,2020-12-22_07h29.21.144,FlowerSimilarity_Experiment,2020.1.2,Win32,60,5fe17d4a51f3a9c1a60f9869,,,,,,,,,,,,,,,,,,,,,,,,,,,,,,,,,,,,,,,,,,,,,,,,,,,,,,,,,,,,,,,,,,,,,,,,,,,,,,,,,,,,,,,,,,,,,,,,,,,,,,,,,,,,,,,
,,,,,,,,,,,,,,,,,,,,,,,,,,,,,,,,,,return,3.546985,106.56,715.6095851,1,0,1,0,1,5bc07e3768529a00011d148c,5fe19237c9707dbdf177b68e,2020-12-22_07h29.21.144,FlowerSimilarity_Experiment,2020.1.2,Win32,60,5fe17d4a51f3a9c1a60f9869,,,,,,,,,,,,,,,,,,,,,,,,,,,,,,,,,,,,,,,,,,,,,,,,,,,,,,,,,,,,,,,,,,,,,,,,,,,,,,,,,,,,,,,,,,,,,,,,,,,,,,,,,,,,,,,
,,,,,,,,,,,,,,,,,,,,,,,,,,,,,,,,,,return,3.489395,115.2,706.2619998,2,0,2,0,1,5bc07e3768529a00011d148c,5fe19237c9707dbdf177b68e,2020-12-22_07h29.21.144,FlowerSimilarity_Experiment,2020.1.2,Win32,60,5fe17d4a51f3a9c1a60f9869,,,,,,,,,,,,,,,,,,,,,,,,,,,,,,,,,,,,,,,,,,,,,,,,,,,,,,,,,,,,,,,,,,,,,,,,,,,,,,,,,,,,,,,,,,,,,,,,,,,,,,,,,,,,,,,
,,,,,,,,,,,,,,,,,,,,,,,,,,,,,,,,,,return,3.64274,89.28,734.3047556,3,0,3,0,1,5bc07e3768529a00011d148c,5fe19237c9707dbdf177b68e,2020-12-22_07h29.21.144,FlowerSimilarity_Experiment,2020.1.2,Win32,60,5fe17d4a51f3a9c1a60f9869,,,,,,,,,,,,,,,,,,,,,,,,,,,,,,,,,,,,,,,,,,,,,,,,,,,,,,,,,,,,,,,,,,,,,,,,,,,,,,,,,,,,,,,,,,,,,,,,,,,,,,,,,,,,,,,
,,,,,,,,,,,,,,,,,,,,,,,,,,,,,,,,,,return,3.420275,126.72,693.7985527,4,0,4,0,1,5bc07e3768529a00011d148c,5fe19237c9707dbdf177b68e,2020-12-22_07h29.21.144,FlowerSimilarity_Experiment,2020.1.2,Win32,60,5fe17d4a51f3a9c1a60f9869,,,,,,,,,,,,,,,,,,,,,,,,,,,,,,,,,,,,,,,,,,,,,,,,,,,,,,,,,,,,,,,,,,,,,,,,,,,,,,,,,,,,,,,,,,,,,,,,,,,,,,,,,,,,,,,
,,,,,,,,,,,,,,,,,,,,,,,,,,,,,,,,,,,,,,,,,,,5bc07e3768529a00011d148c,5fe19237c9707dbdf177b68e,2020-12-22_07h29.21.144,FlowerSimilarity_Experiment,2020.1.2,Win32,60,5fe17d4a51f3a9c1a60f9869,72,12.56764225,72.57813401,483.8542268,48.38542268,217.734402,space,2.97715,space,2.400185,space,6.817065,space,4.00386,space,2.083575,space,3.75726,9,PF,3,0,8.131415,-95,152,1,0,0,response7disk_5,-2,-13,1,0,0,rectangle_8,-2,-13,1,0,0,6,-2,-13,1,0,0,0,0,0,2,1,,,,,,,,,,,,,,,,,,,,,,,,,,,,,,,,,,,,,,,,,,,,,,,,,,,,,,,,,,,,
,,,,,,,,,,,,,,,,,,,,,,,,,,,,,,,,,,,,,,,,,,,5bc07e3768529a00011d148c,5fe19237c9707dbdf177b68e,2020-12-22_07h29.21.144,FlowerSimilarity_Experiment,2020.1.2,Win32,60,5fe17d4a51f3a9c1a60f9869,,,,,,,,,,,,,,,,,,,7,FF,5,2,2.384845,-152,-75,1,0,0,response5disk_5,-7,5,1,0,0,rectangle_8,-7,5,1,0,0,6,-7,5,1,0,0,0,1,1,5,1,,,,,,,,,,,,,,,,,,,,,,,,,,,,,,,,,,,,,,,,,,,,,,,,,,,,,,,,,,,,
,,,,,,,,,,,,,,,,,,,,,,,,,,,,,,,,,,,,,,,,,,,5bc07e3768529a00011d148c,5fe19237c9707dbdf177b68e,2020-12-22_07h29.21.144,FlowerSimilarity_Experiment,2020.1.2,Win32,60,5fe17d4a51f3a9c1a60f9869,,,,,,,,,,,,,,,,,,,7,FF,5,2,1.634875,-118,-64,1,0,0,response5disk_5,11,-6,1,0,0,rectangle_8,105,60,1,0,0,6,8,5,1,0,0,0,2,2,0,1,response1disk_7,6,rectangle_4,,,,,,,,,,,,,,,,,,,,,,,,,,,,,,,,,,,,,,,,,,,,,,,,,,,,,,,,,
,,,,,,,,,,,,,,,,,,,,,,,,,,,,,,,,,,,,,,,,,,,5bc07e3768529a00011d148c,5fe19237c9707dbdf177b68e,2020-12-22_07h29.21.144,FlowerSimilarity_Experiment,2020.1.2,Win32,60,5fe17d4a51f3a9c1a60f9869,,,,,,,,,,,,,,,,,,,6,PF,6,7,2.23176,58,155,1,0,0,response1disk_5,6,-4,1,0,0,rectangle_8,6,-4,1,0,0,6,6,-4,1,0,0,0,3,3,4,1,,,,,,,,,,,,,,,,,,,,,,,,,,,,,,,,,,,,,,,,,,,,,,,,,,,,,,,,,,,,
,,,,,,,,,,,,,,,,,,,,,,,,,,,,,,,,,,,,,,,,,,,5bc07e3768529a00011d148c,5fe19237c9707dbdf177b68e,2020-12-22_07h29.21.144,FlowerSimilarity_Experiment,2020.1.2,Win32,60,5fe17d4a51f3a9c1a60f9869,,,,,,,,,,,,,,,,,,,2,FF,7,3,5.59565,-55,-111,1,0,0,response5disk_5,23,3,1,0,0,rectangle_8,23,3,1,0,0,6,23,3,1,0,0,0,4,4,3,1,,,,,,,,,,,,,,,,,,,,,,,,,,,,,,,,,,,,,,,,,,,,,,,,,,,,,,,,,,,,
,,,,,,,,,,,,,,,,,,,,,,,,,,,,,,,,,,,,,,,,,,,5bc07e3768529a00011d148c,5fe19237c9707dbdf177b68e,2020-12-22_07h29.21.144,FlowerSimilarity_Experiment,2020.1.2,Win32,60,5fe17d4a51f3a9c1a60f9869,,,,,,,,,,,,,,,,,,,9,PF,1,2,6.40786,-158,-51,1,0,0,response5disk_5,24,8,1,0,0,rectangle_8,24,8,1,0,0,6,24,8,1,0,0,0,5,5,6,1,,,,,,,,,,,,,,,,,,,,,,,,,,,,,,,,,,,,,,,,,,,,,,,,,,,,,,,,,,,,
,,,,,,,,,,,,,,,,,,,,,,,,,,,,,,,,,,,,,,,,,,,5bc07e3768529a00011d148c,5fe19237c9707dbdf177b68e,2020-12-22_07h29.21.144,FlowerSimilarity_Experiment,2020.1.2,Win32,60,5fe17d4a51f3a9c1a60f9869,,,,,,,,,,,,,,,,,,,4,PF,3,4,2.5294,59,-95,1,0,0,response3disk_5,7,-5,1,0,0,rectangle_8,7,-5,1,0,0,6,7,-5,1,0,0,0,6,6,1,1,,,,,,,,,,,,,,,,,,,,,,,,,,,,,,,,,,,,,,,,,,,,,,,,,,,,,,,,,,,,
,,,,,,,,,,,,,,,,,,,,,,,,,,,,,,,,,,,,,,,,,,,5bc07e3768529a00011d148c,5fe19237c9707dbdf177b68e,2020-12-22_07h29.21.144,FlowerSimilarity_Experiment,2020.1.2,Win32,60,5fe17d4a51f3a9c1a60f9869,,,,,,,,,,,,,,,,,,,3,PF,,3,2.5125,,,,,,,,,,,,,,,,,,,,,,,,,,,,,,,,space,2.954175,-69,-127,1,0,0,response5disk,2,1,-30,4,1,0,0,rectangle,-30,4,1,0,0,,6,"[256,81,98,76,45,33,290,144,94,72,303,277,284,232,137,220,134,233,125,212]",-30,4,1,0,0,0,0,0,36,1,,,,,,,,,,,,,,,,,,,,,,,
,,,,,,,,,,,,,,,,,,,,,,,,,,,,,,,,,,,,,,,,,,,5bc07e3768529a00011d148c,5fe19237c9707dbdf177b68e,2020-12-22_07h29.21.144,FlowerSimilarity_Experiment,2020.1.2,Win32,60,5fe17d4a51f3a9c1a60f9869,,,,,,,,,,,,,,,,,,,5,PF,,3,1.22056,,,,,,,,,,,,,,,,,,,,,,,,,,,,,,,,,,-58,-91,1,0,0,response5disk,8,2,-21,-13,1,0,0,rectangle,-21,-13,1,0,0,,2,"[256,81,98,76,45,33,290,144,94,72,303,277,284,232,137,220,134,233,125,212]",-21,-13,1,0,0,0,1,1,149,1,,,,,,,,,,,,,,,,,,,,,,,
,,,,,,,,,,,,,,,,,,,,,,,,,,,,,,,,,,,,,,,,,,,5bc07e3768529a00011d148c,5fe19237c9707dbdf177b68e,2020-12-22_07h29.21.144,FlowerSimilarity_Experiment,2020.1.2,Win32,60,5fe17d4a51f3a9c1a60f9869,,,,,,,,,,,,,,,,,,,8,PF,,7,3.03833,,,,,,,,,,,,,,,,,,,,,,,,,,,,,,,,,,53,136,1,0,0,response1disk,4,3,11,16,1,0,0,rectangle,11,16,1,0,0,,5,"[256,81,98,76,45,33,290,144,94,72,303,277,284,232,137,220,134,233,125,212]",11,16,1,0,0,0,2,2,78,1,,,,,,,,,,,,,,,,,,,,,,,
,,,,,,,,,,,,,,,,,,,,,,,,,,,,,,,,,,,,,,,,,,,5bc07e3768529a00011d148c,5fe19237c9707dbdf177b68e,2020-12-22_07h29.21.144,FlowerSimilarity_Experiment,2020.1.2,Win32,60,5fe17d4a51f3a9c1a60f9869,,,,,,,,,,,,,,,,,,,8,FF,,7,1.65826,,,,,,,,,,,,,,,,,,,,,,,,,,,,,,,,,,42,110,1,0,0,response1disk,6,4,21,11,1,0,0,rectangle,21,11,1,0,0,,1,"[256,81,98,76,45,33,290,144,94,72,303,277,284,232,137,220,134,233,125,212]",21,11,1,0,0,0,3,3,37,1,,,,,,,,,,,,,,,,,,,,,,,
,,,,,,,,,,,,,,,,,,,,,,,,,,,,,,,,,,,,,,,,,,,5bc07e3768529a00011d148c,5fe19237c9707dbdf177b68e,2020-12-22_07h29.21.144,FlowerSimilarity_Experiment,2020.1.2,Win32,60,5fe17d4a51f3a9c1a60f9869,,,,,,,,,,,,,,,,,,,4,PF,,3,1.345465,,,,,,,,,,,,,,,,,,,,,,,,,,,,,,,,,,-38,-86,1,0,0,response5disk,7,5,-2,-2,1,0,0,rectangle,-2,-2,1,0,0,,4,"[256,81,98,76,45,33,290,144,94,72,303,277,284,232,137,220,134,233,125,212]",-2,-2,1,0,0,0,4,4,38,1,,,,,,,,,,,,,,,,,,,,,,,
,,,,,,,,,,,,,,,,,,,,,,,,,,,,,,,,,,,,,,,,,,,5bc07e3768529a00011d148c,5fe19237c9707dbdf177b68e,2020-12-22_07h29.21.144,FlowerSimilarity_Experiment,2020.1.2,Win32,60,5fe17d4a51f3a9c1a60f9869,,,,,,,,,,,,,,,,,,,9,FF,,3,0.9874,,,,,,,,,,,,,,,,,,,,,,,,,,,,,,,,,,-51,-83,1,0,0,response5disk,1,6,-11,1,1,0,0,rectangle,-11,1,1,0,0,,4,"[256,81,98,76,45,33,290,144,94,72,303,277,284,232,137,220,134,233,125,212]",-11,1,1,0,0,0,5,5,111,1,,,,,,,,,,,,,,,,,,,,,,,
,,,,,,,,,,,,,,,,,,,,,,,,,,,,,,,,,,,,,,,,,,,5bc07e3768529a00011d148c,5fe19237c9707dbdf177b68e,2020-12-22_07h29.21.144,FlowerSimilarity_Experiment,2020.1.2,Win32,60,5fe17d4a51f3a9c1a60f9869,,,,,,,,,,,,,,,,,,,4,PF,,5,2.250615,,,,,,,,,,,,,,,,,,,,,,,,,,,,,,,,,,95,-69,1,0,0,response3disk,3,7,8,-8,1,0,0,rectangle,8,-8,1,0,0,,1,"[256,81,98,76,45,33,290,144,94,72,303,277,284,232,137,220,134,233,125,212]",8,-8,1,0,0,0,6,6,89,1,,,,,,,,,,,,,,,,,,,,,,,
,,,,,,,,,,,,,,,,,,,,,,,,,,,,,,,,,,,,,,,,,,,5bc07e3768529a00011d148c,5fe19237c9707dbdf177b68e,2020-12-22_07h29.21.144,FlowerSimilarity_Experiment,2020.1.2,Win32,60,5fe17d4a51f3a9c1a60f9869,,,,,,,,,,,,,,,,,,,5,FF,,4,1.47501,,,,,,,,,,,,,,,,,,,,,,,,,,,,,,,,,,53,-113,1,0,0,response3disk,8,8,6,11,1,0,0,rectangle,6,11,1,0,0,,2,"[256,81,98,76,45,33,290,144,94,72,303,277,284,232,137,220,134,233,125,212]",6,11,1,0,0,0,7,7,16,1,,,,,,,,,,,,,,,,,,,,,,,
,,,,,,,,,,,,,,,,,,,,,,,,,,,,,,,,,,,,,,,,,,,5bc07e3768529a00011d148c,5fe19237c9707dbdf177b68e,2020-12-22_07h29.21.144,FlowerSimilarity_Experiment,2020.1.2,Win32,60,5fe17d4a51f3a9c1a60f9869,,,,,,,,,,,,,,,,,,,9,PF,,6,2.854635,,,,,,,,,,,,,,,,,,,,,,,,,,,,,,,,,,106,47,1,0,0,response1disk,6,9,10,-13,1,0,0,rectangle,10,-13,1,0,0,,3,"[256,81,98,76,45,33,290,144,94,72,303,277,284,232,137,220,134,233,125,212]",10,-13,1,0,0,0,8,8,148,1,,,,,,,,,,,,,,,,,,,,,,,
,,,,,,,,,,,,,,,,,,,,,,,,,,,,,,,,,,,,,,,,,,,5bc07e3768529a00011d148c,5fe19237c9707dbdf177b68e,2020-12-22_07h29.21.144,FlowerSimilarity_Experiment,2020.1.2,Win32,60,5fe17d4a51f3a9c1a60f9869,,,,,,,,,,,,,,,,,,,1,FF,,4,1.27858,,,,,,,,,,,,,,,,,,,,,,,,,,,,,,,,,,49,-111,1,0,0,response3disk,9,10,19,1,1,0,0,rectangle,19,1,1,0,0,,7,"[256,81,98,76,45,33,290,144,94,72,303,277,284,232,137,220,134,233,125,212]",19,1,1,0,0,0,9,9,123,1,,,,,,,,,,,,,,,,,,,,,,,
,,,,,,,,,,,,,,,,,,,,,,,,,,,,,,,,,,,,,,,,,,,5bc07e3768529a00011d148c,5fe19237c9707dbdf177b68e,2020-12-22_07h29.21.144,FlowerSimilarity_Experiment,2020.1.2,Win32,60,5fe17d4a51f3a9c1a60f9869,,,,,,,,,,,,,,,,,,,5,FF,,7,1.921515,,,,,,,,,,,,,,,,,,,,,,,,,,,,,,,,,,53,111,1,0,0,response1disk,7,11,15,-9,1,0,0,rectangle,15,-9,1,0,0,,0,"[256,81,98,76,45,33,290,144,94,72,303,277,284,232,137,220,134,233,125,212]",15,-9,1,0,0,0,10,10,7,1,,,,,,,,,,,,,,,,,,,,,,,
,,,,,,,,,,,,,,,,,,,,,,,,,,,,,,,,,,,,,,,,,,,5bc07e3768529a00011d148c,5fe19237c9707dbdf177b68e,2020-12-22_07h29.21.144,FlowerSimilarity_Experiment,2020.1.2,Win32,60,5fe17d4a51f3a9c1a60f9869,,,,,,,,,,,,,,,,,,,2,PF,,3,1.079965,,,,,,,,,,,,,,,,,,,,,,,,,,,,,,,,,,-55,-141,1,0,0,response5disk,7,12,0,3,1,0,0,rectangle,0,3,1,0,0,,5,"[256,81,98,76,45,33,290,144,94,72,303,277,284,232,137,220,134,233,125,212]",0,3,1,0,0,0,11,11,107,1,,,,,,,,,,,,,,,,,,,,,,,
,,,,,,,,,,,,,,,,,,,,,,,,,,,,,,,,,,,,,,,,,,,5bc07e3768529a00011d148c,5fe19237c9707dbdf177b68e,2020-12-22_07h29.21.144,FlowerSimilarity_Experiment,2020.1.2,Win32,60,5fe17d4a51f3a9c1a60f9869,,,,,,,,,,,,,,,,,,,2,FF,,6,2.11084,,,,,,,,,,,,,,,,,,,,,,,,,,,,,,,,,,126,52,1,0,0,response1disk,4,13,-10,0,1,0,0,rectangle,-10,0,1,0,0,,2,"[256,81,98,76,45,33,290,144,94,72,303,277,284,232,137,220,134,233,125,212]",-10,0,1,0,0,0,12,12,145,1,,,,,,,,,,,,,,,,,,,,,,,
,,,,,,,,,,,,,,,,,,,,,,,,,,,,,,,,,,,,,,,,,,,5bc07e3768529a00011d148c,5fe19237c9707dbdf177b68e,2020-12-22_07h29.21.144,FlowerSimilarity_Experiment,2020.1.2,Win32,60,5fe17d4a51f3a9c1a60f9869,,,,,,,,,,,,,,,,,,,9,FF,,7,1.433275,,,,,,,,,,,,,,,,,,,,,,,,,,,,,,,,,,65,131,1,0,0,response1disk,3,14,20,-7,1,0,0,rectangle,20,-7,1,0,0,,6,"[256,81,98,76,45,33,290,144,94,72,303,277,284,232,137,220,134,233,125,212]",20,-7,1,0,0,0,13,13,141,1,,,,,,,,,,,,,,,,,,,,,,,
,,,,,,,,,,,,,,,,,,,,,,,,,,,,,,,,,,,,,,,,,,,5bc07e3768529a00011d148c,5fe19237c9707dbdf177b68e,2020-12-22_07h29.21.144,FlowerSimilarity_Experiment,2020.1.2,Win32,60,5fe17d4a51f3a9c1a60f9869,,,,,,,,,,,,,,,,,,,4,FF,,4,3.182695,,,,,,,,,,,,,,,,,,,,,,,,,,,,,,,,,,84,-105,1,0,0,response3disk,2,15,22,10,1,0,0,rectangle,22,10,1,0,0,,6,"[256,81,98,76,45,33,290,144,94,72,303,277,284,232,137,220,134,233,125,212]",22,10,1,0,0,0,14,14,13,1,,,,,,,,,,,,,,,,,,,,,,,
,,,,,,,,,,,,,,,,,,,,,,,,,,,,,,,,,,,,,,,,,,,5bc07e3768529a00011d148c,5fe19237c9707dbdf177b68e,2020-12-22_07h29.21.144,FlowerSimilarity_Experiment,2020.1.2,Win32,60,5fe17d4a51f3a9c1a60f9869,,,,,,,,,,,,,,,,,,,9,PF,,7,0.836255,,,,,,,,,,,,,,,,,,,,,,,,,,,,,,,,,,77,105,1,0,0,response1disk,7,16,27,-6,1,0,0,rectangle,27,-6,1,0,0,,0,"[256,81,98,76,45,33,290,144,94,72,303,277,284,232,137,220,134,233,125,212]",27,-6,1,0,0,0,15,15,121,1,,,,,,,,,,,,,,,,,,,,,,,
,,,,,,,,,,,,,,,,,,,,,,,,,,,,,,,,,,,,,,,,,,,5bc07e3768529a00011d148c,5fe19237c9707dbdf177b68e,2020-12-22_07h29.21.144,FlowerSimilarity_Experiment,2020.1.2,Win32,60,5fe17d4a51f3a9c1a60f9869,,,,,,,,,,,,,,,,,,,1,FF,,0,2.54705,,,,,,,,,,,,,,,,,,,,,,,,,,,,,,,,,,-56,130,1,0,0,response7disk,1,17,-33,15,1,0,0,rectangle,-33,15,1,0,0,,7,"[256,81,98,76,45,33,290,144,94,72,303,277,284,232,137,220,134,233,125,212]",-33,15,1,0,0,0,16,16,151,1,,,,,,,,,,,,,,,,,,,,,,,
,,,,,,,,,,,,,,,,,,,,,,,,,,,,,,,,,,,,,,,,,,,5bc07e3768529a00011d148c,5fe19237c9707dbdf177b68e,2020-12-22_07h29.21.144,FlowerSimilarity_Experiment,2020.1.2,Win32,60,5fe17d4a51f3a9c1a60f9869,,,,,,,,,,,,,,,,,,,4,PF,,0,0.758885,,,,,,,,,,,,,,,,,,,,,,,,,,,,,,,,,,-27,142,1,0,0,response7disk,4,18,-26,15,1,0,0,rectangle,-26,15,1,0,0,,7,"[256,81,98,76,45,33,290,144,94,72,303,277,284,232,137,220,134,233,125,212]",-26,15,1,0,0,0,17,17,70,1,,,,,,,,,,,,,,,,,,,,,,,
,,,,,,,,,,,,,,,,,,,,,,,,,,,,,,,,,,,,,,,,,,,5bc07e3768529a00011d148c,5fe19237c9707dbdf177b68e,2020-12-22_07h29.21.144,FlowerSimilarity_Experiment,2020.1.2,Win32,60,5fe17d4a51f3a9c1a60f9869,,,,,,,,,,,,,,,,,,,2,FF,,7,1.419885,,,,,,,,,,,,,,,,,,,,,,,,,,,,,,,,,,31,110,1,0,0,response1disk,1,19,-7,-17,1,0,0,rectangle,-7,-17,1,0,0,,0,"[256,81,98,76,45,33,290,144,94,72,303,277,284,232,137,220,134,233,125,212]",-7,-17,1,0,0,0,18,18,85,1,,,,,,,,,,,,,,,,,,,,,,,
,,,,,,,,,,,,,,,,,,,,,,,,,,,,,,,,,,,,,,,,,,,5bc07e3768529a00011d148c,5fe19237c9707dbdf177b68e,2020-12-22_07h29.21.144,FlowerSimilarity_Experiment,2020.1.2,Win32,60,5fe17d4a51f3a9c1a60f9869,,,,,,,,,,,,,,,,,,,9,PF,,7,0.93593,,,,,,,,,,,,,,,,,,,,,,,,,,,,,,,,,,35,68,1,0,0,response1disk,8,20,15,2,1,0,0,rectangle,15,2,1,0,0,,5,"[256,81,98,76,45,33,290,144,94,72,303,277,284,232,137,220,134,233,125,212]",15,2,1,0,0,0,19,19,67,1,,,,,,,,,,,,,,,,,,,,,,,
,,,,,,,,,,,,,,,,,,,,,,,,,,,,,,,,,,,,,,,,,,,5bc07e3768529a00011d148c,5fe19237c9707dbdf177b68e,2020-12-22_07h29.21.144,FlowerSimilarity_Experiment,2020.1.2,Win32,60,5fe17d4a51f3a9c1a60f9869,,,,,,,,,,,,,,,,,,,9,FF,,7,0.718265,,,,,,,,,,,,,,,,,,,,,,,,,,,,,,,,,,40,87,1,0,0,response1disk,2,21,3,0,1,0,0,rectangle,3,0,1,0,0,,3,"[256,81,98,76,45,33,290,144,94,72,303,277,284,232,137,220,134,233,125,212]",3,0,1,0,0,0,20,20,11,1,,,,,,,,,,,,,,,,,,,,,,,
,,,,,,,,,,,,,,,,,,,,,,,,,,,,,,,,,,,,,,,,,,,5bc07e3768529a00011d148c,5fe19237c9707dbdf177b68e,2020-12-22_07h29.21.144,FlowerSimilarity_Experiment,2020.1.2,Win32,60,5fe17d4a51f3a9c1a60f9869,,,,,,,,,,,,,,,,,,,4,FF,,0,1.151535,,,,,,,,,,,,,,,,,,,,,,,,,,,,,,,,,,-81,119,1,0,0,response7disk,4,22,-7,8,1,0,0,rectangle,-7,8,1,0,0,,4,"[256,81,98,76,45,33,290,144,94,72,303,277,284,232,137,220,134,233,125,212]",-7,8,1,0,0,0,21,21,84,1,,,,,,,,,,,,,,,,,,,,,,,
,,,,,,,,,,,,,,,,,,,,,,,,,,,,,,,,,,,,,,,,,,,5bc07e3768529a00011d148c,5fe19237c9707dbdf177b68e,2020-12-22_07h29.21.144,FlowerSimilarity_Experiment,2020.1.2,Win32,60,5fe17d4a51f3a9c1a60f9869,,,,,,,,,,,,,,,,,,,3,FF,,0,0.652365,,,,,,,,,,,,,,,,,,,,,,,,,,,,,,,,,,-74,143,1,0,0,response7disk,7,23,-26,5,1,0,0,rectangle,-26,5,1,0,0,,7,"[256,81,98,76,45,33,290,144,94,72,303,277,284,232,137,220,134,233,125,212]",-26,5,1,0,0,0,22,22,118,1,,,,,,,,,,,,,,,,,,,,,,,
,,,,,,,,,,,,,,,,,,,,,,,,,,,,,,,,,,,,,,,,,,,5bc07e3768529a00011d148c,5fe19237c9707dbdf177b68e,2020-12-22_07h29.21.144,FlowerSimilarity_Experiment,2020.1.2,Win32,60,5fe17d4a51f3a9c1a60f9869,,,,,,,,,,,,,,,,,,,3,FF,,7,1.03618,,,,,,,,,,,,,,,,,,,,,,,,,,,,,,,,,,55,142,1,0,0,response1disk,5,24,-4,1,1,0,0,rectangle,-4,1,1,0,0,,3,"[256,81,98,76,45,33,290,144,94,72,303,277,284,232,137,220,134,233,125,212]",-4,1,1,0,0,0,23,23,101,1,,,,,,,,,,,,,,,,,,,,,,,
,,,,,,,,,,,,,,,,,,,,,,,,,,,,,,,,,,,,,,,,,,,5bc07e3768529a00011d148c,5fe19237c9707dbdf177b68e,2020-12-22_07h29.21.144,FlowerSimilarity_Experiment,2020.1.2,Win32,60,5fe17d4a51f3a9c1a60f9869,,,,,,,,,,,,,,,,,,,4,PF,,7,1.70367,,,,,,,,,,,,,,,,,,,,,,,,,,,,,,,,,,58,127,1,0,0,response1disk,8,25,3,10,1,0,0,rectangle,3,10,1,0,0,,4,"[256,81,98,76,45,33,290,144,94,72,303,277,284,232,137,220,134,233,125,212]",3,10,1,0,0,0,24,24,124,1,,,,,,,,,,,,,,,,,,,,,,,
,,,,,,,,,,,,,,,,,,,,,,,,,,,,,,,,,,,,,,,,,,,5bc07e3768529a00011d148c,5fe19237c9707dbdf177b68e,2020-12-22_07h29.21.144,FlowerSimilarity_Experiment,2020.1.2,Win32,60,5fe17d4a51f3a9c1a60f9869,,,,,,,,,,,,,,,,,,,7,PF,,7,0.81942,,,,,,,,,,,,,,,,,,,,,,,,,,,,,,,,,,43,136,1,0,0,response1disk,8,26,-5,5,1,0,0,rectangle,-5,5,1,0,0,,7,"[256,81,98,76,45,33,290,144,94,72,303,277,284,232,137,220,134,233,125,212]",-5,5,1,0,0,0,25,25,140,1,,,,,,,,,,,,,,,,,,,,,,,
,,,,,,,,,,,,,,,,,,,,,,,,,,,,,,,,,,,,,,,,,,,5bc07e3768529a00011d148c,5fe19237c9707dbdf177b68e,2020-12-22_07h29.21.144,FlowerSimilarity_Experiment,2020.1.2,Win32,60,5fe17d4a51f3a9c1a60f9869,,,,,,,,,,,,,,,,,,,2,FF,,5,2.62129,,,,,,,,,,,,,,,,,,,,,,,,,,,,,,,,,,113,-27,1,0,0,response3disk,8,27,5,-3,1,0,0,rectangle,5,-3,1,0,0,,6,"[256,81,98,76,45,33,290,144,94,72,303,277,284,232,137,220,134,233,125,212]",5,-3,1,0,0,0,26,26,62,1,,,,,,,,,,,,,,,,,,,,,,,
,,,,,,,,,,,,,,,,,,,,,,,,,,,,,,,,,,,,,,,,,,,5bc07e3768529a00011d148c,5fe19237c9707dbdf177b68e,2020-12-22_07h29.21.144,FlowerSimilarity_Experiment,2020.1.2,Win32,60,5fe17d4a51f3a9c1a60f9869,,,,,,,,,,,,,,,,,,,7,FF,,7,0.96942,,,,,,,,,,,,,,,,,,,,,,,,,,,,,,,,,,65,118,1,0,0,response1disk,6,28,17,18,1,0,0,rectangle,17,18,1,0,0,,5,"[256,81,98,76,45,33,290,144,94,72,303,277,284,232,137,220,134,233,125,212]",17,18,1,0,0,0,27,27,31,1,,,,,,,,,,,,,,,,,,,,,,,
,,,,,,,,,,,,,,,,,,,,,,,,,,,,,,,,,,,,,,,,,,,5bc07e3768529a00011d148c,5fe19237c9707dbdf177b68e,2020-12-22_07h29.21.144,FlowerSimilarity_Experiment,2020.1.2,Win32,60,5fe17d4a51f3a9c1a60f9869,,,,,,,,,,,,,,,,,,,9,PF,,7,1.31985,,,,,,,,,,,,,,,,,,,,,,,,,,,,,,,,,,61,103,1,0,0,response1disk,1,29,13,-7,1,0,0,rectangle,13,-7,1,0,0,,4,"[256,81,98,76,45,33,290,144,94,72,303,277,284,232,137,220,134,233,125,212]",13,-7,1,0,0,0,28,28,74,1,,,,,,,,,,,,,,,,,,,,,,,
,,,,,,,,,,,,,,,,,,,,,,,,,,,,,,,,,,,,,,,,,,,5bc07e3768529a00011d148c,5fe19237c9707dbdf177b68e,2020-12-22_07h29.21.144,FlowerSimilarity_Experiment,2020.1.2,Win32,60,5fe17d4a51f3a9c1a60f9869,,,,,,,,,,,,,,,,,,,3,FF,,7,0.736155,,,,,,,,,,,,,,,,,,,,,,,,,,,,,,,,,,58,137,1,0,0,response1disk,8,30,1,0,1,0,0,rectangle,1,0,1,0,0,,7,"[256,81,98,76,45,33,290,144,94,72,303,277,284,232,137,220,134,233,125,212]",1,0,1,0,0,0,29,29,44,1,,,,,,,,,,,,,,,,,,,,,,,
,,,,,,,,,,,,,,,,,,,,,,,,,,,,,,,,,,,,,,,,,,,5bc07e3768529a00011d148c,5fe19237c9707dbdf177b68e,2020-12-22_07h29.21.144,FlowerSimilarity_Experiment,2020.1.2,Win32,60,5fe17d4a51f3a9c1a60f9869,,,,,,,,,,,,,,,,,,,6,PF,,7,0.68609,,,,,,,,,,,,,,,,,,,,,,,,,,,,,,,,,,51,146,1,0,0,response1disk,4,31,2,2,1,0,0,rectangle,2,2,1,0,0,,4,"[256,81,98,76,45,33,290,144,94,72,303,277,284,232,137,220,134,233,125,212]",2,2,1,0,0,0,30,30,33,1,,,,,,,,,,,,,,,,,,,,,,,
,,,,,,,,,,,,,,,,,,,,,,,,,,,,,,,,,,,,,,,,,,,5bc07e3768529a00011d148c,5fe19237c9707dbdf177b68e,2020-12-22_07h29.21.144,FlowerSimilarity_Experiment,2020.1.2,Win32,60,5fe17d4a51f3a9c1a60f9869,,,,,,,,,,,,,,,,,,,1,FF,,6,2.10394,,,,,,,,,,,,,,,,,,,,,,,,,,,,,,,,,,91,40,1,0,0,response1disk,4,32,34,-9,1,0,0,rectangle,34,-9,1,0,0,,3,"[256,81,98,76,45,33,290,144,94,72,303,277,284,232,137,220,134,233,125,212]",34,-9,1,0,0,0,31,31,135,1,,,,,,,,,,,,,,,,,,,,,,,
,,,,,,,,,,,,,,,,,,,,,,,,,,,,,,,,,,,,,,,,,,,5bc07e3768529a00011d148c,5fe19237c9707dbdf177b68e,2020-12-22_07h29.21.144,FlowerSimilarity_Experiment,2020.1.2,Win32,60,5fe17d4a51f3a9c1a60f9869,,,,,,,,,,,,,,,,,,,5,FF,,4,1.114485,,,,,,,,,,,,,,,,,,,,,,,,,,,,,,,,,,32,-138,1,0,0,response3disk,2,33,24,-7,1,0,0,rectangle,-48,-117,1,0,0,3,3,"[256,81,98,76,45,33,290,144,94,72,303,277,284,232,137,220,134,233,125,212]",0,-1,1,0,0,0,32,32,55,1,response5disk_3,rectangle,,,,,,,,,,,,,,,,,,,,,
,,,,,,,,,,,,,,,,,,,,,,,,,,,,,,,,,,,,,,,,,,,5bc07e3768529a00011d148c,5fe19237c9707dbdf177b68e,2020-12-22_07h29.21.144,FlowerSimilarity_Experiment,2020.1.2,Win32,60,5fe17d4a51f3a9c1a60f9869,,,,,,,,,,,,,,,,,,,5,FF,,7,1.701805,,,,,,,,,,,,,,,,,,,,,,,,,,,,,,,,,,70,106,1,0,0,response1disk,9,34,2,3,1,0,0,rectangle,2,3,1,0,0,3,2,"[256,81,98,76,45,33,290,144,94,72,303,277,284,232,137,220,134,233,125,212]",2,3,1,0,0,0,33,33,61,1,,,,,,,,,,,,,,,,,,,,,,,
,,,,,,,,,,,,,,,,,,,,,,,,,,,,,,,,,,,,,,,,,,,5bc07e3768529a00011d148c,5fe19237c9707dbdf177b68e,2020-12-22_07h29.21.144,FlowerSimilarity_Experiment,2020.1.2,Win32,60,5fe17d4a51f3a9c1a60f9869,,,,,,,,,,,,,,,,,,,5,FF,,0,1.10025,,,,,,,,,,,,,,,,,,,,,,,,,,,,,,,,,,-81,120,1,0,0,response7disk,5,35,-3,-9,1,0,0,rectangle,-3,-9,1,0,0,3,5,"[256,81,98,76,45,33,290,144,94,72,303,277,284,232,137,220,134,233,125,212]",-3,-9,1,0,0,0,34,34,19,1,,,,,,,,,,,,,,,,,,,,,,,
,,,,,,,,,,,,,,,,,,,,,,,,,,,,,,,,,,,,,,,,,,,5bc07e3768529a00011d148c,5fe19237c9707dbdf177b68e,2020-12-22_07h29.21.144,FlowerSimilarity_Experiment,2020.1.2,Win32,60,5fe17d4a51f3a9c1a60f9869,,,,,,,,,,,,,,,,,,,5,PF,,6,3.186415,,,,,,,,,,,,,,,,,,,,,,,,,,,,,,,,,,109,60,1,0,0,response1disk,3,36,15,16,1,0,0,rectangle,15,16,1,0,0,3,5,"[256,81,98,76,45,33,290,144,94,72,303,277,284,232,137,220,134,233,125,212]",15,16,1,0,0,0,35,35,109,1,,,,,,,,,,,,,,,,,,,,,,,
,,,,,,,,,,,,,,,,,,,,,,,,,,,,,,,,,,,,,,,,,,,5bc07e3768529a00011d148c,5fe19237c9707dbdf177b68e,2020-12-22_07h29.21.144,FlowerSimilarity_Experiment,2020.1.2,Win32,60,5fe17d4a51f3a9c1a60f9869,,,,,,,,,,,,,,,,,,,2,FF,,7,1.11759,,,,,,,,,,,,,,,,,,,,,,,,,,,,,,,,,,67,150,1,0,0,response1disk,7,37,21,18,1,0,0,rectangle,21,18,1,0,0,3,3,"[256,81,98,76,45,33,290,144,94,72,303,277,284,232,137,220,134,233,125,212]",21,18,1,0,0,0,36,36,63,1,,,,,,,,,,,,,,,,,,,,,,,
,,,,,,,,,,,,,,,,,,,,,,,,,,,,,,,,,,,,,,,,,,,5bc07e3768529a00011d148c,5fe19237c9707dbdf177b68e,2020-12-22_07h29.21.144,FlowerSimilarity_Experiment,2020.1.2,Win32,60,5fe17d4a51f3a9c1a60f9869,,,,,,,,,,,,,,,,,,,6,FF,,6,0.98425,,,,,,,,,,,,,,,,,,,,,,,,,,,,,,,,,,124,28,1,0,0,response1disk,8,38,21,-2,1,0,0,rectangle,21,-2,1,0,0,3,7,"[256,81,98,76,45,33,290,144,94,72,303,277,284,232,137,220,134,233,125,212]",21,-2,1,0,0,0,37,37,133,1,,,,,,,,,,,,,,,,,,,,,,,
,,,,,,,,,,,,,,,,,,,,,,,,,,,,,,,,,,,,,,,,,,,5bc07e3768529a00011d148c,5fe19237c9707dbdf177b68e,2020-12-22_07h29.21.144,FlowerSimilarity_Experiment,2020.1.2,Win32,60,5fe17d4a51f3a9c1a60f9869,,,,,,,,,,,,,,,,,,,4,PF,,7,0.852435,,,,,,,,,,,,,,,,,,,,,,,,,,,,,,,,,,57,122,1,0,0,response1disk,5,39,-12,3,1,0,0,rectangle,-12,3,1,0,0,3,5,"[256,81,98,76,45,33,290,144,94,72,303,277,284,232,137,220,134,233,125,212]",-12,3,1,0,0,0,38,38,49,1,,,,,,,,,,,,,,,,,,,,,,,
,,,,,,,,,,,,,,,,,,,,,,,,,,,,,,,,,,,,,,,,,,,5bc07e3768529a00011d148c,5fe19237c9707dbdf177b68e,2020-12-22_07h29.21.144,FlowerSimilarity_Experiment,2020.1.2,Win32,60,5fe17d4a51f3a9c1a60f9869,,,,,,,,,,,,,,,,,,,1,FF,,7,3.288225,,,,,,,,,,,,,,,,,,,,,,,,,,,,,,,,,,76,90,1,0,0,response1disk,2,40,17,15,1,0,0,rectangle,17,15,1,0,0,3,6,"[256,81,98,76,45,33,290,144,94,72,303,277,284,232,137,220,134,233,125,212]",17,15,1,0,0,0,39,39,2,1,,,,,,,,,,,,,,,,,,,,,,,
,,,,,,,,,,,,,,,,,,,,,,,,,,,,,,,,,,,,,,,,,,,5bc07e3768529a00011d148c,5fe19237c9707dbdf177b68e,2020-12-22_07h29.21.144,FlowerSimilarity_Experiment,2020.1.2,Win32,60,5fe17d4a51f3a9c1a60f9869,,,,,,,,,,,,,,,,,,,8,PF,,7,0.88595,,,,,,,,,,,,,,,,,,,,,,,,,,,,,,,,,,56,127,1,0,0,response1disk,7,41,-2,2,1,0,0,rectangle,-2,2,1,0,0,3,6,"[256,81,98,76,45,33,290,144,94,72,303,277,284,232,137,220,134,233,125,212]",-2,2,1,0,0,0,40,40,23,1,,,,,,,,,,,,,,,,,,,,,,,
,,,,,,,,,,,,,,,,,,,,,,,,,,,,,,,,,,,,,,,,,,,5bc07e3768529a00011d148c,5fe19237c9707dbdf177b68e,2020-12-22_07h29.21.144,FlowerSimilarity_Experiment,2020.1.2,Win32,60,5fe17d4a51f3a9c1a60f9869,,,,,,,,,,,,,,,,,,,7,FF,,7,1.66902,,,,,,,,,,,,,,,,,,,,,,,,,,,,,,,,,,79,97,1,0,0,response1disk,2,42,5,-1,1,0,0,rectangle,5,-1,1,0,0,3,5,"[256,81,98,76,45,33,290,144,94,72,303,277,284,232,137,220,134,233,125,212]",5,-1,1,0,0,0,41,41,138,1,,,,,,,,,,,,,,,,,,,,,,,
,,,,,,,,,,,,,,,,,,,,,,,,,,,,,,,,,,,,,,,,,,,5bc07e3768529a00011d148c,5fe19237c9707dbdf177b68e,2020-12-22_07h29.21.144,FlowerSimilarity_Experiment,2020.1.2,Win32,60,5fe17d4a51f3a9c1a60f9869,,,,,,,,,,,,,,,,,,,1,FF,,5,1.20291,,,,,,,,,,,,,,,,,,,,,,,,,,,,,,,,,,102,-50,1,0,0,response3disk,7,43,17,2,1,0,0,rectangle,17,2,1,0,0,3,5,"[256,81,98,76,45,33,290,144,94,72,303,277,284,232,137,220,134,233,125,212]",17,2,1,0,0,0,42,42,137,1,,,,,,,,,,,,,,,,,,,,,,,
,,,,,,,,,,,,,,,,,,,,,,,,,,,,,,,,,,,,,,,,,,,5bc07e3768529a00011d148c,5fe19237c9707dbdf177b68e,2020-12-22_07h29.21.144,FlowerSimilarity_Experiment,2020.1.2,Win32,60,5fe17d4a51f3a9c1a60f9869,,,,,,,,,,,,,,,,,,,6,PF,,7,1.00311,,,,,,,,,,,,,,,,,,,,,,,,,,,,,,,,,,63,122,1,0,0,response1disk,2,44,6,-4,1,0,0,rectangle,6,-4,1,0,0,3,1,"[256,81,98,76,45,33,290,144,94,72,303,277,284,232,137,220,134,233,125,212]",6,-4,1,0,0,0,43,43,130,1,,,,,,,,,,,,,,,,,,,,,,,
,,,,,,,,,,,,,,,,,,,,,,,,,,,,,,,,,,,,,,,,,,,5bc07e3768529a00011d148c,5fe19237c9707dbdf177b68e,2020-12-22_07h29.21.144,FlowerSimilarity_Experiment,2020.1.2,Win32,60,5fe17d4a51f3a9c1a60f9869,,,,,,,,,,,,,,,,,,,1,FF,,7,0.98637,,,,,,,,,,,,,,,,,,,,,,,,,,,,,,,,,,39,158,1,0,0,response1disk,6,45,6,-15,1,0,0,rectangle,60,115,1,0,0,7,7,"[256,81,98,76,45,33,290,144,94,72,303,277,284,232,137,220,134,233,125,212]",7,18,1,0,0,0,44,44,58,1,response1disk_3,rectangle,,,,,,,,,,,,,,,,,,,,,
,,,,,,,,,,,,,,,,,,,,,,,,,,,,,,,,,,,,,,,,,,,5bc07e3768529a00011d148c,5fe19237c9707dbdf177b68e,2020-12-22_07h29.21.144,FlowerSimilarity_Experiment,2020.1.2,Win32,60,5fe17d4a51f3a9c1a60f9869,,,,,,,,,,,,,,,,,,,4,PF,,6,1.236665,,,,,,,,,,,,,,,,,,,,,,,,,,,,,,,,,,127,39,1,0,0,response1disk,1,46,-28,2,1,0,0,rectangle,-28,2,1,0,0,7,7,"[256,81,98,76,45,33,290,144,94,72,303,277,284,232,137,220,134,233,125,212]",-28,2,1,0,0,0,45,45,115,1,,,,,,,,,,,,,,,,,,,,,,,
,,,,,,,,,,,,,,,,,,,,,,,,,,,,,,,,,,,,,,,,,,,5bc07e3768529a00011d148c,5fe19237c9707dbdf177b68e,2020-12-22_07h29.21.144,FlowerSimilarity_Experiment,2020.1.2,Win32,60,5fe17d4a51f3a9c1a60f9869,,,,,,,,,,,,,,,,,,,2,FF,,7,0.785855,,,,,,,,,,,,,,,,,,,,,,,,,,,,,,,,,,52,128,1,0,0,response1disk,9,47,-1,-2,1,0,0,rectangle,-1,-2,1,0,0,7,3,"[256,81,98,76,45,33,290,144,94,72,303,277,284,232,137,220,134,233,125,212]",-1,-2,1,0,0,0,46,46,72,1,,,,,,,,,,,,,,,,,,,,,,,
,,,,,,,,,,,,,,,,,,,,,,,,,,,,,,,,,,,,,,,,,,,5bc07e3768529a00011d148c,5fe19237c9707dbdf177b68e,2020-12-22_07h29.21.144,FlowerSimilarity_Experiment,2020.1.2,Win32,60,5fe17d4a51f3a9c1a60f9869,,,,,,,,,,,,,,,,,,,7,PF,,5,1.23549,,,,,,,,,,,,,,,,,,,,,,,,,,,,,,,,,,115,-56,1,0,0,response3disk,2,48,-7,-1,1,0,0,rectangle,-7,-1,1,0,0,7,7,"[256,81,98,76,45,33,290,144,94,72,303,277,284,232,137,220,134,233,125,212]",-7,-1,1,0,0,0,47,47,32,1,,,,,,,,,,,,,,,,,,,,,,,
,,,,,,,,,,,,,,,,,,,,,,,,,,,,,,,,,,,,,,,,,,,5bc07e3768529a00011d148c,5fe19237c9707dbdf177b68e,2020-12-22_07h29.21.144,FlowerSimilarity_Experiment,2020.1.2,Win32,60,5fe17d4a51f3a9c1a60f9869,,,,,,,,,,,,,,,,,,,6,FF,,7,1.21985,,,,,,,,,,,,,,,,,,,,,,,,,,,,,,,,,,44,123,1,0,0,response1disk,7,49,19,10,1,0,0,rectangle,19,10,1,0,0,7,5,"[256,81,98,76,45,33,290,144,94,72,303,277,284,232,137,220,134,233,125,212]",19,10,1,0,0,0,48,48,18,1,,,,,,,,,,,,,,,,,,,,,,,
,,,,,,,,,,,,,,,,,,,,,,,,,,,,,,,,,,,,,,,,,,,5bc07e3768529a00011d148c,5fe19237c9707dbdf177b68e,2020-12-22_07h29.21.144,FlowerSimilarity_Experiment,2020.1.2,Win32,60,5fe17d4a51f3a9c1a60f9869,,,,,,,,,,,,,,,,,,,8,FF,,7,0.86928,,,,,,,,,,,,,,,,,,,,,,,,,,,,,,,,,,63,99,1,0,0,response1disk,2,50,4,3,1,0,0,rectangle,4,3,1,0,0,7,5,"[256,81,98,76,45,33,290,144,94,72,303,277,284,232,137,220,134,233,125,212]",4,3,1,0,0,0,49,49,22,1,,,,,,,,,,,,,,,,,,,,,,,
,,,,,,,,,,,,,,,,,,,,,,,,,,,,,,,,,,,,,,,,,,,5bc07e3768529a00011d148c,5fe19237c9707dbdf177b68e,2020-12-22_07h29.21.144,FlowerSimilarity_Experiment,2020.1.2,Win32,60,5fe17d4a51f3a9c1a60f9869,,,,,,,,,,,,,,,,,,,9,FF,,5,1.203185,,,,,,,,,,,,,,,,,,,,,,,,,,,,,,,,,,90,-48,1,0,0,response3disk,5,51,-14,10,1,0,0,rectangle,-14,10,1,0,0,7,1,"[256,81,98,76,45,33,290,144,94,72,303,277,284,232,137,220,134,233,125,212]",-14,10,1,0,0,0,50,50,128,1,,,,,,,,,,,,,,,,,,,,,,,
,,,,,,,,,,,,,,,,,,,,,,,,,,,,,,,,,,,,,,,,,,,5bc07e3768529a00011d148c,5fe19237c9707dbdf177b68e,2020-12-22_07h29.21.144,FlowerSimilarity_Experiment,2020.1.2,Win32,60,5fe17d4a51f3a9c1a60f9869,,,,,,,,,,,,,,,,,,,3,PF,,5,1.720185,,,,,,,,,,,,,,,,,,,,,,,,,,,,,,,,,,108,-38,1,0,0,response3disk,4,52,28,14,1,0,0,rectangle,28,14,1,0,0,7,4,"[256,81,98,76,45,33,290,144,94,72,303,277,284,232,137,220,134,233,125,212]",28,14,1,0,0,0,51,51,30,1,,,,,,,,,,,,,,,,,,,,,,,
,,,,,,,,,,,,,,,,,,,,,,,,,,,,,,,,,,,,,,,,,,,5bc07e3768529a00011d148c,5fe19237c9707dbdf177b68e,2020-12-22_07h29.21.144,FlowerSimilarity_Experiment,2020.1.2,Win32,60,5fe17d4a51f3a9c1a60f9869,,,,,,,,,,,,,,,,,,,3,PF,,5,0.919415,,,,,,,,,,,,,,,,,,,,,,,,,,,,,,,,,,87,-57,1,0,0,response3disk,5,53,2,-4,1,0,0,rectangle,2,-4,1,0,0,7,2,"[256,81,98,76,45,33,290,144,94,72,303,277,284,232,137,220,134,233,125,212]",2,-4,1,0,0,0,52,52,66,1,,,,,,,,,,,,,,,,,,,,,,,
,,,,,,,,,,,,,,,,,,,,,,,,,,,,,,,,,,,,,,,,,,,5bc07e3768529a00011d148c,5fe19237c9707dbdf177b68e,2020-12-22_07h29.21.144,FlowerSimilarity_Experiment,2020.1.2,Win32,60,5fe17d4a51f3a9c1a60f9869,,,,,,,,,,,,,,,,,,,1,PF,,5,1.386675,,,,,,,,,,,,,,,,,,,,,,,,,,,,,,,,,,90,-23,1,0,0,response3disk,7,54,23,-3,1,0,0,rectangle,23,-3,1,0,0,7,4,"[256,81,98,76,45,33,290,144,94,72,303,277,284,232,137,220,134,233,125,212]",23,-3,1,0,0,0,53,53,150,1,,,,,,,,,,,,,,,,,,,,,,,
,,,,,,,,,,,,,,,,,,,,,,,,,,,,,,,,,,,,,,,,,,,5bc07e3768529a00011d148c,5fe19237c9707dbdf177b68e,2020-12-22_07h29.21.144,FlowerSimilarity_Experiment,2020.1.2,Win32,60,5fe17d4a51f3a9c1a60f9869,,,,,,,,,,,,,,,,,,,2,PF,,5,2.170845,,,,,,,,,,,,,,,,,,,,,,,,,,,,,,,,,,69,-47,1,0,0,response3disk,4,55,4,5,1,0,0,rectangle,4,5,1,0,0,7,3,"[256,81,98,76,45,33,290,144,94,72,303,277,284,232,137,220,134,233,125,212]",4,5,1,0,0,0,54,54,127,1,,,,,,,,,,,,,,,,,,,,,,,
,,,,,,,,,,,,,,,,,,,,,,,,,,,,,,,,,,,,,,,,,,,5bc07e3768529a00011d148c,5fe19237c9707dbdf177b68e,2020-12-22_07h29.21.144,FlowerSimilarity_Experiment,2020.1.2,Win32,60,5fe17d4a51f3a9c1a60f9869,,,,,,,,,,,,,,,,,,,1,PF,,7,1.45231,,,,,,,,,,,,,,,,,,,,,,,,,,,,,,,,,,33,153,1,0,0,response1disk,5,56,34,-4,1,0,0,rectangle,34,-4,1,0,0,7,6,"[256,81,98,76,45,33,290,144,94,72,303,277,284,232,137,220,134,233,125,212]",34,-4,1,0,0,0,55,55,28,1,,,,,,,,,,,,,,,,,,,,,,,
,,,,,,,,,,,,,,,,,,,,,,,,,,,,,,,,,,,,,,,,,,,5bc07e3768529a00011d148c,5fe19237c9707dbdf177b68e,2020-12-22_07h29.21.144,FlowerSimilarity_Experiment,2020.1.2,Win32,60,5fe17d4a51f3a9c1a60f9869,,,,,,,,,,,,,,,,,,,9,PF,,1,1.236375,,,,,,,,,,,,,,,,,,,,,,,,,,,,,,,,,,-104,54,1,0,0,response7disk,9,57,-5,-2,1,0,0,rectangle,-5,-2,1,0,0,7,0,"[256,81,98,76,45,33,290,144,94,72,303,277,284,232,137,220,134,233,125,212]",-5,-2,1,0,0,0,56,56,106,1,,,,,,,,,,,,,,,,,,,,,,,
,,,,,,,,,,,,,,,,,,,,,,,,,,,,,,,,,,,,,,,,,,,5bc07e3768529a00011d148c,5fe19237c9707dbdf177b68e,2020-12-22_07h29.21.144,FlowerSimilarity_Experiment,2020.1.2,Win32,60,5fe17d4a51f3a9c1a60f9869,,,,,,,,,,,,,,,,,,,7,FF,,7,1.67058,,,,,,,,,,,,,,,,,,,,,,,,,,,,,,,,,,61,139,1,0,0,response1disk,8,58,26,18,1,0,0,rectangle,26,18,1,0,0,7,4,"[256,81,98,76,45,33,290,144,94,72,303,277,284,232,137,220,134,233,125,212]",26,18,1,0,0,0,57,57,97,1,,,,,,,,,,,,,,,,,,,,,,,
,,,,,,,,,,,,,,,,,,,,,,,,,,,,,,,,,,,,,,,,,,,5bc07e3768529a00011d148c,5fe19237c9707dbdf177b68e,2020-12-22_07h29.21.144,FlowerSimilarity_Experiment,2020.1.2,Win32,60,5fe17d4a51f3a9c1a60f9869,,,,,,,,,,,,,,,,,,,5,PF,,6,1.48663,,,,,,,,,,,,,,,,,,,,,,,,,,,,,,,,,,106,53,1,0,0,response1disk,9,59,11,11,1,0,0,rectangle,11,11,1,0,0,7,1,"[256,81,98,76,45,33,290,144,94,72,303,277,284,232,137,220,134,233,125,212]",11,11,1,0,0,0,58,58,136,1,,,,,,,,,,,,,,,,,,,,,,,
,,,,,,,,,,,,,,,,,,,,,,,,,,,,,,,,,,,,,,,,,,,5bc07e3768529a00011d148c,5fe19237c9707dbdf177b68e,2020-12-22_07h29.21.144,FlowerSimilarity_Experiment,2020.1.2,Win32,60,5fe17d4a51f3a9c1a60f9869,,,,,,,,,,,,,,,,,,,7,PF,,6,1.002805,,,,,,,,,,,,,,,,,,,,,,,,,,,,,,,,,,127,75,1,0,0,response1disk,3,60,-12,13,1,0,0,rectangle,-12,13,1,0,0,7,7,"[256,81,98,76,45,33,290,144,94,72,303,277,284,232,137,220,134,233,125,212]",-12,13,1,0,0,0,59,59,81,1,,,,,,,,,,,,,,,,,,,,,,,
,,,,,,,,,,,,,,,,,,,,,,,,,,,,,,,,,,,,,,,,,,,5bc07e3768529a00011d148c,5fe19237c9707dbdf177b68e,2020-12-22_07h29.21.144,FlowerSimilarity_Experiment,2020.1.2,Win32,60,5fe17d4a51f3a9c1a60f9869,,,,,,,,,,,,,,,,,,,6,FF,,6,0.88603,,,,,,,,,,,,,,,,,,,,,,,,,,,,,,,,,,86,66,1,0,0,response1disk,9,61,4,14,1,0,0,rectangle,4,14,1,0,0,7,1,"[256,81,98,76,45,33,290,144,94,72,303,277,284,232,137,220,134,233,125,212]",4,14,1,0,0,0,60,60,160,1,,,,,,,,,,,,,,,,,,,,,,,
,,,,,,,,,,,,,,,,,,,,,,,,,,,,,,,,,,,,,,,,,,,5bc07e3768529a00011d148c,5fe19237c9707dbdf177b68e,2020-12-22_07h29.21.144,FlowerSimilarity_Experiment,2020.1.2,Win32,60,5fe17d4a51f3a9c1a60f9869,,,,,,,,,,,,,,,,,,,1,PF,,6,2.00346,,,,,,,,,,,,,,,,,,,,,,,,,,,,,,,,,,126,79,1,0,0,response1disk,6,62,17,16,1,0,0,rectangle,17,16,1,0,0,7,7,"[256,81,98,76,45,33,290,144,94,72,303,277,284,232,137,220,134,233,125,212]",17,16,1,0,0,0,61,61,144,1,,,,,,,,,,,,,,,,,,,,,,,
,,,,,,,,,,,,,,,,,,,,,,,,,,,,,,,,,,,,,,,,,,,5bc07e3768529a00011d148c,5fe19237c9707dbdf177b68e,2020-12-22_07h29.21.144,FlowerSimilarity_Experiment,2020.1.2,Win32,60,5fe17d4a51f3a9c1a60f9869,,,,,,,,,,,,,,,,,,,9,PF,,7,1.253075,,,,,,,,,,,,,,,,,,,,,,,,,,,,,,,,,,43,148,1,0,0,response1disk,4,63,-13,13,1,0,0,rectangle,-13,13,1,0,0,7,5,"[256,81,98,76,45,33,290,144,94,72,303,277,284,232,137,220,134,233,125,212]",-13,13,1,0,0,0,62,62,114,1,,,,,,,,,,,,,,,,,,,,,,,
,,,,,,,,,,,,,,,,,,,,,,,,,,,,,,,,,,,,,,,,,,,5bc07e3768529a00011d148c,5fe19237c9707dbdf177b68e,2020-12-22_07h29.21.144,FlowerSimilarity_Experiment,2020.1.2,Win32,60,5fe17d4a51f3a9c1a60f9869,,,,,,,,,,,,,,,,,,,8,PF,,7,0.936335,,,,,,,,,,,,,,,,,,,,,,,,,,,,,,,,,,59,144,1,0,0,response1disk,6,64,3,11,1,0,0,rectangle,3,11,1,0,0,7,5,"[256,81,98,76,45,33,290,144,94,72,303,277,284,232,137,220,134,233,125,212]",3,11,1,0,0,0,63,63,161,1,,,,,,,,,,,,,,,,,,,,,,,
,,,,,,,,,,,,,,,,,,,,,,,,,,,,,,,,,,,,,,,,,,,5bc07e3768529a00011d148c,5fe19237c9707dbdf177b68e,2020-12-22_07h29.21.144,FlowerSimilarity_Experiment,2020.1.2,Win32,60,5fe17d4a51f3a9c1a60f9869,,,,,,,,,,,,,,,,,,,7,FF,,5,1.153085,,,,,,,,,,,,,,,,,,,,,,,,,,,,,,,,,,126,-80,1,0,0,response3disk,1,65,44,-12,1,0,0,rectangle,44,-12,1,0,0,7,7,"[256,81,98,76,45,33,290,144,94,72,303,277,284,232,137,220,134,233,125,212]",44,-12,1,0,0,0,64,64,132,1,,,,,,,,,,,,,,,,,,,,,,,
,,,,,,,,,,,,,,,,,,,,,,,,,,,,,,,,,,,,,,,,,,,5bc07e3768529a00011d148c,5fe19237c9707dbdf177b68e,2020-12-22_07h29.21.144,FlowerSimilarity_Experiment,2020.1.2,Win32,60,5fe17d4a51f3a9c1a60f9869,,,,,,,,,,,,,,,,,,,1,PF,,4,0.902885,,,,,,,,,,,,,,,,,,,,,,,,,,,,,,,,,,82,-116,1,0,0,response3disk,3,66,28,-13,1,0,0,rectangle,28,-13,1,0,0,7,2,"[256,81,98,76,45,33,290,144,94,72,303,277,284,232,137,220,134,233,125,212]",28,-13,1,0,0,0,65,65,1,1,,,,,,,,,,,,,,,,,,,,,,,
,,,,,,,,,,,,,,,,,,,,,,,,,,,,,,,,,,,,,,,,,,,5bc07e3768529a00011d148c,5fe19237c9707dbdf177b68e,2020-12-22_07h29.21.144,FlowerSimilarity_Experiment,2020.1.2,Win32,60,5fe17d4a51f3a9c1a60f9869,,,,,,,,,,,,,,,,,,,7,FF,,4,0.669045,,,,,,,,,,,,,,,,,,,,,,,,,,,,,,,,,,67,-115,1,0,0,response3disk,7,67,-8,-1,1,0,0,rectangle,-8,-1,1,0,0,7,1,"[256,81,98,76,45,33,290,144,94,72,303,277,284,232,137,220,134,233,125,212]",-8,-1,1,0,0,0,66,66,34,1,,,,,,,,,,,,,,,,,,,,,,,
,,,,,,,,,,,,,,,,,,,,,,,,,,,,,,,,,,,,,,,,,,,5bc07e3768529a00011d148c,5fe19237c9707dbdf177b68e,2020-12-22_07h29.21.144,FlowerSimilarity_Experiment,2020.1.2,Win32,60,5fe17d4a51f3a9c1a60f9869,,,,,,,,,,,,,,,,,,,4,FF,,6,1.68675,,,,,,,,,,,,,,,,,,,,,,,,,,,,,,,,,,82,58,1,0,0,response1disk,1,68,31,-4,1,0,0,rectangle,31,-4,1,0,0,7,3,"[256,81,98,76,45,33,290,144,94,72,303,277,284,232,137,220,134,233,125,212]",31,-4,1,0,0,0,67,67,102,1,,,,,,,,,,,,,,,,,,,,,,,
,,,,,,,,,,,,,,,,,,,,,,,,,,,,,,,,,,,,,,,,,,,5bc07e3768529a00011d148c,5fe19237c9707dbdf177b68e,2020-12-22_07h29.21.144,FlowerSimilarity_Experiment,2020.1.2,Win32,60,5fe17d4a51f3a9c1a60f9869,,,,,,,,,,,,,,,,,,,6,PF,,7,1.31986,,,,,,,,,,,,,,,,,,,,,,,,,,,,,,,,,,43,107,1,0,0,response1disk,7,69,3,-7,1,0,0,rectangle,3,-7,1,0,0,7,0,"[256,81,98,76,45,33,290,144,94,72,303,277,284,232,137,220,134,233,125,212]",3,-7,1,0,0,0,68,68,50,1,,,,,,,,,,,,,,,,,,,,,,,
,,,,,,,,,,,,,,,,,,,,,,,,,,,,,,,,,,,,,,,,,,,5bc07e3768529a00011d148c,5fe19237c9707dbdf177b68e,2020-12-22_07h29.21.144,FlowerSimilarity_Experiment,2020.1.2,Win32,60,5fe17d4a51f3a9c1a60f9869,,,,,,,,,,,,,,,,,,,9,PF,,7,1.95384,,,,,,,,,,,,,,,,,,,,,,,,,,,,,,,,,,41,112,1,0,0,response1disk,3,70,19,17,1,0,0,rectangle,19,17,1,0,0,7,0,"[256,81,98,76,45,33,290,144,94,72,303,277,284,232,137,220,134,233,125,212]",19,17,1,0,0,0,69,69,119,1,,,,,,,,,,,,,,,,,,,,,,,
,,,,,,,,,,,,,,,,,,,,,,,,,,,,,,,,,,,,,,,,,,,5bc07e3768529a00011d148c,5fe19237c9707dbdf177b68e,2020-12-22_07h29.21.144,FlowerSimilarity_Experiment,2020.1.2,Win32,60,5fe17d4a51f3a9c1a60f9869,,,,,,,,,,,,,,,,,,,7,FF,,4,1.601695,,,,,,,,,,,,,,,,,,,,,,,,,,,,,,,,,,70,-86,1,0,0,response3disk,4,71,37,-8,1,0,0,rectangle,37,-8,1,0,0,7,0,"[256,81,98,76,45,33,290,144,94,72,303,277,284,232,137,220,134,233,125,212]",37,-8,1,0,0,0,70,70,158,1,,,,,,,,,,,,,,,,,,,,,,,
,,,,,,,,,,,,,,,,,,,,,,,,,,,,,,,,,,,,,,,,,,,5bc07e3768529a00011d148c,5fe19237c9707dbdf177b68e,2020-12-22_07h29.21.144,FlowerSimilarity_Experiment,2020.1.2,Win32,60,5fe17d4a51f3a9c1a60f9869,,,,,,,,,,,,,,,,,,,5,PF,,7,0.901,,,,,,,,,,,,,,,,,,,,,,,,,,,,,,,,,,51,115,1,0,0,response1disk,6,72,10,-11,1,0,0,rectangle,57,-126,1,0,0,4,4,"[256,81,98,76,45,33,290,144,94,72,303,277,284,232,137,220,134,233,125,212]",33,8,1,0,0,0,71,71,103,1,response3disk_3,rectangle,,,,,,,,,,,,,,,,,,,,,
,,,,,,,,,,,,,,,,,,,,,,,,,,,,,,,,,,,,,,,,,,,5bc07e3768529a00011d148c,5fe19237c9707dbdf177b68e,2020-12-22_07h29.21.144,FlowerSimilarity_Experiment,2020.1.2,Win32,60,5fe17d4a51f3a9c1a60f9869,,,,,,,,,,,,,,,,,,,2,PF,,3,1.26806,,,,,,,,,,,,,,,,,,,,,,,,,,,,,,,,,,-60,-94,1,0,0,response5disk,2,73,-8,-11,1,0,0,rectangle,-8,-11,1,0,0,4,6,"[256,81,98,76,45,33,290,144,94,72,303,277,284,232,137,220,134,233,125,212]",-8,-11,1,0,0,0,72,72,14,1,,,,,,,,,,,,,,,,,,,,,,,
,,,,,,,,,,,,,,,,,,,,,,,,,,,,,,,,,,,,,,,,,,,5bc07e3768529a00011d148c,5fe19237c9707dbdf177b68e,2020-12-22_07h29.21.144,FlowerSimilarity_Experiment,2020.1.2,Win32,60,5fe17d4a51f3a9c1a60f9869,,,,,,,,,,,,,,,,,,,7,PF,,7,0.90102,,,,,,,,,,,,,,,,,,,,,,,,,,,,,,,,,,58,84,1,0,0,response1disk,5,74,24,-5,1,0,0,rectangle,24,-5,1,0,0,4,3,"[256,81,98,76,45,33,290,144,94,72,303,277,284,232,137,220,134,233,125,212]",24,-5,1,0,0,0,73,73,92,1,,,,,,,,,,,,,,,,,,,,,,,
,,,,,,,,,,,,,,,,,,,,,,,,,,,,,,,,,,,,,,,,,,,5bc07e3768529a00011d148c,5fe19237c9707dbdf177b68e,2020-12-22_07h29.21.144,FlowerSimilarity_Experiment,2020.1.2,Win32,60,5fe17d4a51f3a9c1a60f9869,,,,,,,,,,,,,,,,,,,8,PF,,2,1.786905,,,,,,,,,,,,,,,,,,,,,,,,,,,,,,,,,,-91,-58,1,0,0,response5disk,9,75,13,2,1,0,0,rectangle,13,2,1,0,0,4,7,"[256,81,98,76,45,33,290,144,94,72,303,277,284,232,137,220,134,233,125,212]",13,2,1,0,0,0,74,74,42,1,,,,,,,,,,,,,,,,,,,,,,,
,,,,,,,,,,,,,,,,,,,,,,,,,,,,,,,,,,,,,,,,,,,5bc07e3768529a00011d148c,5fe19237c9707dbdf177b68e,2020-12-22_07h29.21.144,FlowerSimilarity_Experiment,2020.1.2,Win32,60,5fe17d4a51f3a9c1a60f9869,,,,,,,,,,,,,,,,,,,8,FF,,4,1.13617,,,,,,,,,,,,,,,,,,,,,,,,,,,,,,,,,,70,-134,1,0,0,response3disk,7,76,24,-17,1,0,0,rectangle,75,-118,1,0,0,4,4,"[256,81,98,76,45,33,290,144,94,72,303,277,284,232,137,220,134,233,125,212]",27,5,1,0,0,0,75,75,86,1,response3disk_3,rectangle,,,,,,,,,,,,,,,,,,,,,
,,,,,,,,,,,,,,,,,,,,,,,,,,,,,,,,,,,,,,,,,,,5bc07e3768529a00011d148c,5fe19237c9707dbdf177b68e,2020-12-22_07h29.21.144,FlowerSimilarity_Experiment,2020.1.2,Win32,60,5fe17d4a51f3a9c1a60f9869,,,,,,,,,,,,,,,,,,,6,FF,,0,1.20486,,,,,,,,,,,,,,,,,,,,,,,,,,,,,,,,,,-55,143,1,0,0,response7disk,6,77,-21,-9,1,0,0,rectangle,-21,-9,1,0,0,4,7,"[256,81,98,76,45,33,290,144,94,72,303,277,284,232,137,220,134,233,125,212]",-21,-9,1,0,0,0,76,76,91,1,,,,,,,,,,,,,,,,,,,,,,,
,,,,,,,,,,,,,,,,,,,,,,,,,,,,,,,,,,,,,,,,,,,5bc07e3768529a00011d148c,5fe19237c9707dbdf177b68e,2020-12-22_07h29.21.144,FlowerSimilarity_Experiment,2020.1.2,Win32,60,5fe17d4a51f3a9c1a60f9869,,,,,,,,,,,,,,,,,,,9,FF,,5,1.47009,,,,,,,,,,,,,,,,,,,,,,,,,,,,,,,,,,72,-50,1,0,0,response3disk,6,78,-5,-6,1,0,0,rectangle,-5,-6,1,0,0,4,4,"[256,81,98,76,45,33,290,144,94,72,303,277,284,232,137,220,134,233,125,212]",-5,-6,1,0,0,0,77,77,117,1,,,,,,,,,,,,,,,,,,,,,,,
,,,,,,,,,,,,,,,,,,,,,,,,,,,,,,,,,,,,,,,,,,,5bc07e3768529a00011d148c,5fe19237c9707dbdf177b68e,2020-12-22_07h29.21.144,FlowerSimilarity_Experiment,2020.1.2,Win32,60,5fe17d4a51f3a9c1a60f9869,,,,,,,,,,,,,,,,,,,8,FF,,7,1.702585,,,,,,,,,,,,,,,,,,,,,,,,,,,,,,,,,,42,127,1,0,0,response1disk,3,79,19,-5,1,0,0,rectangle,19,-5,1,0,0,4,0,"[256,81,98,76,45,33,290,144,94,72,303,277,284,232,137,220,134,233,125,212]",19,-5,1,0,0,0,78,78,154,1,,,,,,,,,,,,,,,,,,,,,,,
,,,,,,,,,,,,,,,,,,,,,,,,,,,,,,,,,,,,,,,,,,,5bc07e3768529a00011d148c,5fe19237c9707dbdf177b68e,2020-12-22_07h29.21.144,FlowerSimilarity_Experiment,2020.1.2,Win32,60,5fe17d4a51f3a9c1a60f9869,,,,,,,,,,,,,,,,,,,4,FF,,6,2.020595,,,,,,,,,,,,,,,,,,,,,,,,,,,,,,,,,,126,66,1,0,0,response1disk,3,80,-14,16,1,0,0,rectangle,-14,16,1,0,0,4,0,"[256,81,98,76,45,33,290,144,94,72,303,277,284,232,137,220,134,233,125,212]",-14,16,1,0,0,0,79,79,77,1,,,,,,,,,,,,,,,,,,,,,,,
,,,,,,,,,,,,,,,,,,,,,,,,,,,,,,,,,,,,,,,,,,,5bc07e3768529a00011d148c,5fe19237c9707dbdf177b68e,2020-12-22_07h29.21.144,FlowerSimilarity_Experiment,2020.1.2,Win32,60,5fe17d4a51f3a9c1a60f9869,,,,,,,,,,,,,,,,,,,2,PF,,7,2.23658,,,,,,,,,,,,,,,,,,,,,,,,,,,,,,,,,,41,136,1,0,0,response1disk,1,81,12,15,1,0,0,rectangle,88,-104,1,0,0,4,4,"[256,81,98,76,45,33,290,144,94,72,303,277,284,232,137,220,134,233,125,212]",29,10,1,0,0,0,80,80,9,1,response3disk_3,rectangle,,,,,,,,,,,,,,,,,,,,,
,,,,,,,,,,,,,,,,,,,,,,,,,,,,,,,,,,,,,,,,,,,5bc07e3768529a00011d148c,5fe19237c9707dbdf177b68e,2020-12-22_07h29.21.144,FlowerSimilarity_Experiment,2020.1.2,Win32,60,5fe17d4a51f3a9c1a60f9869,,,,,,,,,,,,,,,,,,,9,FF,,7,0.75244,,,,,,,,,,,,,,,,,,,,,,,,,,,,,,,,,,47,130,1,0,0,response1disk,7,82,-4,-8,1,0,0,rectangle,-4,-8,1,0,0,4,5,"[256,81,98,76,45,33,290,144,94,72,303,277,284,232,137,220,134,233,125,212]",-4,-8,1,0,0,0,81,81,100,1,,,,,,,,,,,,,,,,,,,,,,,
,,,,,,,,,,,,,,,,,,,,,,,,,,,,,,,,,,,,,,,,,,,5bc07e3768529a00011d148c,5fe19237c9707dbdf177b68e,2020-12-22_07h29.21.144,FlowerSimilarity_Experiment,2020.1.2,Win32,60,5fe17d4a51f3a9c1a60f9869,,,,,,,,,,,,,,,,,,,1,FF,,7,0.80574,,,,,,,,,,,,,,,,,,,,,,,,,,,,,,,,,,43,130,1,0,0,response1disk,3,83,5,4,1,0,0,rectangle,5,4,1,0,0,4,3,"[256,81,98,76,45,33,290,144,94,72,303,277,284,232,137,220,134,233,125,212]",5,4,1,0,0,0,82,82,99,1,,,,,,,,,,,,,,,,,,,,,,,
,,,,,,,,,,,,,,,,,,,,,,,,,,,,,,,,,,,,,,,,,,,5bc07e3768529a00011d148c,5fe19237c9707dbdf177b68e,2020-12-22_07h29.21.144,FlowerSimilarity_Experiment,2020.1.2,Win32,60,5fe17d4a51f3a9c1a60f9869,,,,,,,,,,,,,,,,,,,6,PF,,7,0.98623,,,,,,,,,,,,,,,,,,,,,,,,,,,,,,,,,,62,112,1,0,0,response1disk,3,84,-12,-19,1,0,0,rectangle,-12,-19,1,0,0,4,4,"[256,81,98,76,45,33,290,144,94,72,303,277,284,232,137,220,134,233,125,212]",-12,-19,1,0,0,0,83,83,26,1,,,,,,,,,,,,,,,,,,,,,,,
,,,,,,,,,,,,,,,,,,,,,,,,,,,,,,,,,,,,,,,,,,,5bc07e3768529a00011d148c,5fe19237c9707dbdf177b68e,2020-12-22_07h29.21.144,FlowerSimilarity_Experiment,2020.1.2,Win32,60,5fe17d4a51f3a9c1a60f9869,,,,,,,,,,,,,,,,,,,7,PF,,6,0.98594,,,,,,,,,,,,,,,,,,,,,,,,,,,,,,,,,,88,42,1,0,0,response1disk,4,85,-5,-1,1,0,0,rectangle,-5,-1,1,0,0,4,5,"[256,81,98,76,45,33,290,144,94,72,303,277,284,232,137,220,134,233,125,212]",-5,-1,1,0,0,0,84,84,43,1,,,,,,,,,,,,,,,,,,,,,,,
,,,,,,,,,,,,,,,,,,,,,,,,,,,,,,,,,,,,,,,,,,,5bc07e3768529a00011d148c,5fe19237c9707dbdf177b68e,2020-12-22_07h29.21.144,FlowerSimilarity_Experiment,2020.1.2,Win32,60,5fe17d4a51f3a9c1a60f9869,,,,,,,,,,,,,,,,,,,6,FF,,7,1.48663,,,,,,,,,,,,,,,,,,,,,,,,,,,,,,,,,,40,115,1,0,0,response1disk,3,86,11,13,1,0,0,rectangle,11,13,1,0,0,4,4,"[256,81,98,76,45,33,290,144,94,72,303,277,284,232,137,220,134,233,125,212]",11,13,1,0,0,0,85,85,21,1,,,,,,,,,,,,,,,,,,,,,,,
,,,,,,,,,,,,,,,,,,,,,,,,,,,,,,,,,,,,,,,,,,,5bc07e3768529a00011d148c,5fe19237c9707dbdf177b68e,2020-12-22_07h29.21.144,FlowerSimilarity_Experiment,2020.1.2,Win32,60,5fe17d4a51f3a9c1a60f9869,,,,,,,,,,,,,,,,,,,4,FF,,7,1.93695,,,,,,,,,,,,,,,,,,,,,,,,,,,,,,,,,,60,94,1,0,0,response1disk,7,87,23,17,1,0,0,rectangle,23,17,1,0,0,4,6,"[256,81,98,76,45,33,290,144,94,72,303,277,284,232,137,220,134,233,125,212]",23,17,1,0,0,0,86,86,87,1,,,,,,,,,,,,,,,,,,,,,,,
,,,,,,,,,,,,,,,,,,,,,,,,,,,,,,,,,,,,,,,,,,,5bc07e3768529a00011d148c,5fe19237c9707dbdf177b68e,2020-12-22_07h29.21.144,FlowerSimilarity_Experiment,2020.1.2,Win32,60,5fe17d4a51f3a9c1a60f9869,,,,,,,,,,,,,,,,,,,1,PF,,0,0.65267,,,,,,,,,,,,,,,,,,,,,,,,,,,,,,,,,,-26,147,1,0,0,response7disk,1,88,-25,15,1,0,0,rectangle,-25,15,1,0,0,4,0,"[256,81,98,76,45,33,290,144,94,72,303,277,284,232,137,220,134,233,125,212]",-25,15,1,0,0,0,87,87,76,1,,,,,,,,,,,,,,,,,,,,,,,
,,,,,,,,,,,,,,,,,,,,,,,,,,,,,,,,,,,,,,,,,,,5bc07e3768529a00011d148c,5fe19237c9707dbdf177b68e,2020-12-22_07h29.21.144,FlowerSimilarity_Experiment,2020.1.2,Win32,60,5fe17d4a51f3a9c1a60f9869,,,,,,,,,,,,,,,,,,,8,PF,,7,0.919195,,,,,,,,,,,,,,,,,,,,,,,,,,,,,,,,,,61,100,1,0,0,response1disk,3,89,21,4,1,0,0,rectangle,21,4,1,0,0,4,0,"[256,81,98,76,45,33,290,144,94,72,303,277,284,232,137,220,134,233,125,212]",21,4,1,0,0,0,88,88,71,1,,,,,,,,,,,,,,,,,,,,,,,
,,,,,,,,,,,,,,,,,,,,,,,,,,,,,,,,,,,,,,,,,,,5bc07e3768529a00011d148c,5fe19237c9707dbdf177b68e,2020-12-22_07h29.21.144,FlowerSimilarity_Experiment,2020.1.2,Win32,60,5fe17d4a51f3a9c1a60f9869,,,,,,,,,,,,,,,,,,,4,FF,,7,1.06972,,,,,,,,,,,,,,,,,,,,,,,,,,,,,,,,,,32,118,1,0,0,response1disk,8,90,2,17,1,0,0,rectangle,2,17,1,0,0,4,7,"[256,81,98,76,45,33,290,144,94,72,303,277,284,232,137,220,134,233,125,212]",2,17,1,0,0,0,89,89,35,1,,,,,,,,,,,,,,,,,,,,,,,
,,,,,,,,,,,,,,,,,,,,,,,,,,,,,,,,,,,,,,,,,,,5bc07e3768529a00011d148c,5fe19237c9707dbdf177b68e,2020-12-22_07h29.21.144,FlowerSimilarity_Experiment,2020.1.2,Win32,60,5fe17d4a51f3a9c1a60f9869,,,,,,,,,,,,,,,,,,,8,FF,,0,0.818465,,,,,,,,,,,,,,,,,,,,,,,,,,,,,,,,,,-54,132,1,0,0,response7disk,8,91,-27,14,1,0,0,rectangle,-27,14,1,0,0,4,1,"[256,81,98,76,45,33,290,144,94,72,303,277,284,232,137,220,134,233,125,212]",-27,14,1,0,0,0,90,90,48,1,,,,,,,,,,,,,,,,,,,,,,,
,,,,,,,,,,,,,,,,,,,,,,,,,,,,,,,,,,,,,,,,,,,5bc07e3768529a00011d148c,5fe19237c9707dbdf177b68e,2020-12-22_07h29.21.144,FlowerSimilarity_Experiment,2020.1.2,Win32,60,5fe17d4a51f3a9c1a60f9869,,,,,,,,,,,,,,,,,,,7,FF,,7,1.26984,,,,,,,,,,,,,,,,,,,,,,,,,,,,,,,,,,43,125,1,0,0,response1disk,9,92,-9,-2,1,0,0,rectangle,-9,-2,1,0,0,4,1,"[256,81,98,76,45,33,290,144,94,72,303,277,284,232,137,220,134,233,125,212]",-9,-2,1,0,0,0,91,91,155,1,,,,,,,,,,,,,,,,,,,,,,,
,,,,,,,,,,,,,,,,,,,,,,,,,,,,,,,,,,,,,,,,,,,5bc07e3768529a00011d148c,5fe19237c9707dbdf177b68e,2020-12-22_07h29.21.144,FlowerSimilarity_Experiment,2020.1.2,Win32,60,5fe17d4a51f3a9c1a60f9869,,,,,,,,,,,,,,,,,,,5,PF,,0,0.869565,,,,,,,,,,,,,,,,,,,,,,,,,,,,,,,,,,-25,132,1,0,0,response7disk,5,93,-8,-10,1,0,0,rectangle,-8,-10,1,0,0,4,0,"[256,81,98,76,45,33,290,144,94,72,303,277,284,232,137,220,134,233,125,212]",-8,-10,1,0,0,0,92,92,94,1,,,,,,,,,,,,,,,,,,,,,,,
,,,,,,,,,,,,,,,,,,,,,,,,,,,,,,,,,,,,,,,,,,,5bc07e3768529a00011d148c,5fe19237c9707dbdf177b68e,2020-12-22_07h29.21.144,FlowerSimilarity_Experiment,2020.1.2,Win32,60,5fe17d4a51f3a9c1a60f9869,,,,,,,,,,,,,,,,,,,6,FF,,7,1.23659,,,,,,,,,,,,,,,,,,,,,,,,,,,,,,,,,,50,90,1,0,0,response1disk,1,94,9,1,1,0,0,rectangle,-108,-32,1,0,0,4,2,"[256,81,98,76,45,33,290,144,94,72,303,277,284,232,137,220,134,233,125,212]",-22,-5,1,0,0,0,93,93,5,1,response5disk_3,rectangle,,,,,,,,,,,,,,,,,,,,,
,,,,,,,,,,,,,,,,,,,,,,,,,,,,,,,,,,,,,,,,,,,5bc07e3768529a00011d148c,5fe19237c9707dbdf177b68e,2020-12-22_07h29.21.144,FlowerSimilarity_Experiment,2020.1.2,Win32,60,5fe17d4a51f3a9c1a60f9869,,,,,,,,,,,,,,,,,,,3,PF,,7,1.00302,,,,,,,,,,,,,,,,,,,,,,,,,,,,,,,,,,70,114,1,0,0,response1disk,8,95,-10,11,1,0,0,rectangle,-10,11,1,0,0,4,6,"[256,81,98,76,45,33,290,144,94,72,303,277,284,232,137,220,134,233,125,212]",-10,11,1,0,0,0,94,94,3,1,,,,,,,,,,,,,,,,,,,,,,,
,,,,,,,,,,,,,,,,,,,,,,,,,,,,,,,,,,,,,,,,,,,5bc07e3768529a00011d148c,5fe19237c9707dbdf177b68e,2020-12-22_07h29.21.144,FlowerSimilarity_Experiment,2020.1.2,Win32,60,5fe17d4a51f3a9c1a60f9869,,,,,,,,,,,,,,,,,,,6,PF,,7,0.68606,,,,,,,,,,,,,,,,,,,,,,,,,,,,,,,,,,21,98,1,0,0,response1disk,8,96,20,16,1,0,0,rectangle,20,16,1,0,0,4,2,"[256,81,98,76,45,33,290,144,94,72,303,277,284,232,137,220,134,233,125,212]",20,16,1,0,0,0,95,95,64,1,,,,,,,,,,,,,,,,,,,,,,,
,,,,,,,,,,,,,,,,,,,,,,,,,,,,,,,,,,,,,,,,,,,5bc07e3768529a00011d148c,5fe19237c9707dbdf177b68e,2020-12-22_07h29.21.144,FlowerSimilarity_Experiment,2020.1.2,Win32,60,5fe17d4a51f3a9c1a60f9869,,,,,,,,,,,,,,,,,,,2,PF,,7,0.70314,,,,,,,,,,,,,,,,,,,,,,,,,,,,,,,,,,46,93,1,0,0,response1disk,5,97,10,16,1,0,0,rectangle,10,16,1,0,0,4,0,"[256,81,98,76,45,33,290,144,94,72,303,277,284,232,137,220,134,233,125,212]",10,16,1,0,0,0,96,96,147,1,,,,,,,,,,,,,,,,,,,,,,,
,,,,,,,,,,,,,,,,,,,,,,,,,,,,,,,,,,,,,,,,,,,5bc07e3768529a00011d148c,5fe19237c9707dbdf177b68e,2020-12-22_07h29.21.144,FlowerSimilarity_Experiment,2020.1.2,Win32,60,5fe17d4a51f3a9c1a60f9869,,,,,,,,,,,,,,,,,,,1,FF,,7,0.8862,,,,,,,,,,,,,,,,,,,,,,,,,,,,,,,,,,58,126,1,0,0,response1disk,8,98,10,-14,1,0,0,rectangle,64,102,1,0,0,7,7,"[256,81,98,76,45,33,290,144,94,72,303,277,284,232,137,220,134,233,125,212]",24,-2,1,0,0,0,97,97,27,1,response1disk_3,rectangle,,,,,,,,,,,,,,,,,,,,,
,,,,,,,,,,,,,,,,,,,,,,,,,,,,,,,,,,,,,,,,,,,5bc07e3768529a00011d148c,5fe19237c9707dbdf177b68e,2020-12-22_07h29.21.144,FlowerSimilarity_Experiment,2020.1.2,Win32,60,5fe17d4a51f3a9c1a60f9869,,,,,,,,,,,,,,,,,,,6,PF,,7,0.736245,,,,,,,,,,,,,,,,,,,,,,,,,,,,,,,,,,47,91,1,0,0,response1disk,5,99,11,8,1,0,0,rectangle,11,8,1,0,0,7,0,"[256,81,98,76,45,33,290,144,94,72,303,277,284,232,137,220,134,233,125,212]",11,8,1,0,0,0,98,98,59,1,,,,,,,,,,,,,,,,,,,,,,,
,,,,,,,,,,,,,,,,,,,,,,,,,,,,,,,,,,,,,,,,,,,5bc07e3768529a00011d148c,5fe19237c9707dbdf177b68e,2020-12-22_07h29.21.144,FlowerSimilarity_Experiment,2020.1.2,Win32,60,5fe17d4a51f3a9c1a60f9869,,,,,,,,,,,,,,,,,,,4,PF,,7,1.219845,,,,,,,,,,,,,,,,,,,,,,,,,,,,,,,,,,48,106,1,0,0,response1disk,6,100,2,-5,1,0,0,rectangle,2,-5,1,0,0,7,0,"[256,81,98,76,45,33,290,144,94,72,303,277,284,232,137,220,134,233,125,212]",2,-5,1,0,0,0,99,99,120,1,,,,,,,,,,,,,,,,,,,,,,,
,,,,,,,,,,,,,,,,,,,,,,,,,,,,,,,,,,,,,,,,,,,5bc07e3768529a00011d148c,5fe19237c9707dbdf177b68e,2020-12-22_07h29.21.144,FlowerSimilarity_Experiment,2020.1.2,Win32,60,5fe17d4a51f3a9c1a60f9869,,,,,,,,,,,,,,,,,,,4,FF,,7,1.08623,,,,,,,,,,,,,,,,,,,,,,,,,,,,,,,,,,43,104,1,0,0,response1disk,9,101,25,11,1,0,0,rectangle,25,11,1,0,0,7,1,"[256,81,98,76,45,33,290,144,94,72,303,277,284,232,137,220,134,233,125,212]",25,11,1,0,0,0,100,100,90,1,,,,,,,,,,,,,,,,,,,,,,,
,,,,,,,,,,,,,,,,,,,,,,,,,,,,,,,,,,,,,,,,,,,5bc07e3768529a00011d148c,5fe19237c9707dbdf177b68e,2020-12-22_07h29.21.144,FlowerSimilarity_Experiment,2020.1.2,Win32,60,5fe17d4a51f3a9c1a60f9869,,,,,,,,,,,,,,,,,,,8,FF,,4,1.286535,,,,,,,,,,,,,,,,,,,,,,,,,,,,,,,,,,60,-68,1,0,0,response3disk,5,102,29,13,1,0,0,rectangle,29,13,1,0,0,7,0,"[256,81,98,76,45,33,290,144,94,72,303,277,284,232,137,220,134,233,125,212]",29,13,1,0,0,0,101,101,152,1,,,,,,,,,,,,,,,,,,,,,,,
,,,,,,,,,,,,,,,,,,,,,,,,,,,,,,,,,,,,,,,,,,,5bc07e3768529a00011d148c,5fe19237c9707dbdf177b68e,2020-12-22_07h29.21.144,FlowerSimilarity_Experiment,2020.1.2,Win32,60,5fe17d4a51f3a9c1a60f9869,,,,,,,,,,,,,,,,,,,5,FF,,4,0.819325,,,,,,,,,,,,,,,,,,,,,,,,,,,,,,,,,,87,-90,1,0,0,response3disk,3,103,39,0,1,0,0,rectangle,39,0,1,0,0,7,0,"[256,81,98,76,45,33,290,144,94,72,303,277,284,232,137,220,134,233,125,212]",39,0,1,0,0,0,102,102,25,1,,,,,,,,,,,,,,,,,,,,,,,
,,,,,,,,,,,,,,,,,,,,,,,,,,,,,,,,,,,,,,,,,,,5bc07e3768529a00011d148c,5fe19237c9707dbdf177b68e,2020-12-22_07h29.21.144,FlowerSimilarity_Experiment,2020.1.2,Win32,60,5fe17d4a51f3a9c1a60f9869,,,,,,,,,,,,,,,,,,,3,FF,,7,0.902995,,,,,,,,,,,,,,,,,,,,,,,,,,,,,,,,,,47,86,1,0,0,response1disk,6,104,33,-4,1,0,0,rectangle,33,-4,1,0,0,7,7,"[256,81,98,76,45,33,290,144,94,72,303,277,284,232,137,220,134,233,125,212]",33,-4,1,0,0,0,103,103,95,1,,,,,,,,,,,,,,,,,,,,,,,
,,,,,,,,,,,,,,,,,,,,,,,,,,,,,,,,,,,,,,,,,,,5bc07e3768529a00011d148c,5fe19237c9707dbdf177b68e,2020-12-22_07h29.21.144,FlowerSimilarity_Experiment,2020.1.2,Win32,60,5fe17d4a51f3a9c1a60f9869,,,,,,,,,,,,,,,,,,,2,FF,,0,1.169765,,,,,,,,,,,,,,,,,,,,,,,,,,,,,,,,,,-38,152,1,0,0,response7disk,2,105,-17,1,1,0,0,rectangle,-17,1,1,0,0,7,4,"[256,81,98,76,45,33,290,144,94,72,303,277,284,232,137,220,134,233,125,212]",-17,1,1,0,0,0,104,104,142,1,,,,,,,,,,,,,,,,,,,,,,,
,,,,,,,,,,,,,,,,,,,,,,,,,,,,,,,,,,,,,,,,,,,5bc07e3768529a00011d148c,5fe19237c9707dbdf177b68e,2020-12-22_07h29.21.144,FlowerSimilarity_Experiment,2020.1.2,Win32,60,5fe17d4a51f3a9c1a60f9869,,,,,,,,,,,,,,,,,,,6,PF,,7,0.618965,,,,,,,,,,,,,,,,,,,,,,,,,,,,,,,,,,54,94,1,0,0,response1disk,6,106,1,14,1,0,0,rectangle,1,14,1,0,0,7,6,"[256,81,98,76,45,33,290,144,94,72,303,277,284,232,137,220,134,233,125,212]",1,14,1,0,0,0,105,105,0,1,,,,,,,,,,,,,,,,,,,,,,,
,,,,,,,,,,,,,,,,,,,,,,,,,,,,,,,,,,,,,,,,,,,5bc07e3768529a00011d148c,5fe19237c9707dbdf177b68e,2020-12-22_07h29.21.144,FlowerSimilarity_Experiment,2020.1.2,Win32,60,5fe17d4a51f3a9c1a60f9869,,,,,,,,,,,,,,,,,,,2,PF,,7,0.919595,,,,,,,,,,,,,,,,,,,,,,,,,,,,,,,,,,46,81,1,0,0,response1disk,9,107,2,-14,1,0,0,rectangle,2,-14,1,0,0,7,5,"[256,81,98,76,45,33,290,144,94,72,303,277,284,232,137,220,134,233,125,212]",2,-14,1,0,0,0,106,106,39,1,,,,,,,,,,,,,,,,,,,,,,,
,,,,,,,,,,,,,,,,,,,,,,,,,,,,,,,,,,,,,,,,,,,5bc07e3768529a00011d148c,5fe19237c9707dbdf177b68e,2020-12-22_07h29.21.144,FlowerSimilarity_Experiment,2020.1.2,Win32,60,5fe17d4a51f3a9c1a60f9869,,,,,,,,,,,,,,,,,,,5,FF,,4,0.9695,,,,,,,,,,,,,,,,,,,,,,,,,,,,,,,,,,75,-117,1,0,0,response3disk,1,108,-12,7,1,0,0,rectangle,-12,7,1,0,0,7,1,"[256,81,98,76,45,33,290,144,94,72,303,277,284,232,137,220,134,233,125,212]",-12,7,1,0,0,0,107,107,131,1,,,,,,,,,,,,,,,,,,,,,,,
,,,,,,,,,,,,,,,,,,,,,,,,,,,,,,,,,,,,,,,,,,,5bc07e3768529a00011d148c,5fe19237c9707dbdf177b68e,2020-12-22_07h29.21.144,FlowerSimilarity_Experiment,2020.1.2,Win32,60,5fe17d4a51f3a9c1a60f9869,,,,,,,,,,,,,,,,,,,3,PF,,4,0.60255,,,,,,,,,,,,,,,,,,,,,,,,,,,,,,,,,,94,-146,1,0,0,response3disk,1,109,3,9,1,0,0,rectangle,3,9,1,0,0,7,2,"[256,81,98,76,45,33,290,144,94,72,303,277,284,232,137,220,134,233,125,212]",3,9,1,0,0,0,108,108,96,1,,,,,,,,,,,,,,,,,,,,,,,
,,,,,,,,,,,,,,,,,,,,,,,,,,,,,,,,,,,,,,,,,,,5bc07e3768529a00011d148c,5fe19237c9707dbdf177b68e,2020-12-22_07h29.21.144,FlowerSimilarity_Experiment,2020.1.2,Win32,60,5fe17d4a51f3a9c1a60f9869,,,,,,,,,,,,,,,,,,,3,FF,,0,1.086245,,,,,,,,,,,,,,,,,,,,,,,,,,,,,,,,,,-47,129,1,0,0,response7disk,3,110,-16,-8,1,0,0,rectangle,-16,-8,1,0,0,7,1,"[256,81,98,76,45,33,290,144,94,72,303,277,284,232,137,220,134,233,125,212]",-16,-8,1,0,0,0,109,109,68,1,,,,,,,,,,,,,,,,,,,,,,,
,,,,,,,,,,,,,,,,,,,,,,,,,,,,,,,,,,,,,,,,,,,5bc07e3768529a00011d148c,5fe19237c9707dbdf177b68e,2020-12-22_07h29.21.144,FlowerSimilarity_Experiment,2020.1.2,Win32,60,5fe17d4a51f3a9c1a60f9869,,,,,,,,,,,,,,,,,,,1,PF,,4,1.13627,,,,,,,,,,,,,,,,,,,,,,,,,,,,,,,,,,35,-109,1,0,0,response3disk,9,111,5,2,1,0,0,rectangle,5,2,1,0,0,7,7,"[256,81,98,76,45,33,290,144,94,72,303,277,284,232,137,220,134,233,125,212]",5,2,1,0,0,0,110,110,15,1,,,,,,,,,,,,,,,,,,,,,,,
,,,,,,,,,,,,,,,,,,,,,,,,,,,,,,,,,,,,,,,,,,,5bc07e3768529a00011d148c,5fe19237c9707dbdf177b68e,2020-12-22_07h29.21.144,FlowerSimilarity_Experiment,2020.1.2,Win32,60,5fe17d4a51f3a9c1a60f9869,,,,,,,,,,,,,,,,,,,3,FF,,4,0.803,,,,,,,,,,,,,,,,,,,,,,,,,,,,,,,,,,40,-103,1,0,0,response3disk,9,112,18,3,1,0,0,rectangle,18,3,1,0,0,7,0,"[256,81,98,76,45,33,290,144,94,72,303,277,284,232,137,220,134,233,125,212]",18,3,1,0,0,0,111,111,143,1,,,,,,,,,,,,,,,,,,,,,,,
,,,,,,,,,,,,,,,,,,,,,,,,,,,,,,,,,,,,,,,,,,,5bc07e3768529a00011d148c,5fe19237c9707dbdf177b68e,2020-12-22_07h29.21.144,FlowerSimilarity_Experiment,2020.1.2,Win32,60,5fe17d4a51f3a9c1a60f9869,,,,,,,,,,,,,,,,,,,1,PF,,7,1.16966,,,,,,,,,,,,,,,,,,,,,,,,,,,,,,,,,,43,98,1,0,0,response1disk,2,113,23,-1,1,0,0,rectangle,23,-1,1,0,0,7,0,"[256,81,98,76,45,33,290,144,94,72,303,277,284,232,137,220,134,233,125,212]",23,-1,1,0,0,0,112,112,24,1,,,,,,,,,,,,,,,,,,,,,,,
,,,,,,,,,,,,,,,,,,,,,,,,,,,,,,,,,,,,,,,,,,,5bc07e3768529a00011d148c,5fe19237c9707dbdf177b68e,2020-12-22_07h29.21.144,FlowerSimilarity_Experiment,2020.1.2,Win32,60,5fe17d4a51f3a9c1a60f9869,,,,,,,,,,,,,,,,,,,1,FF,,7,1.087335,,,,,,,,,,,,,,,,,,,,,,,,,,,,,,,,,,46,59,1,0,0,response1disk,5,114,32,13,1,0,0,rectangle,32,13,1,0,0,7,6,"[256,81,98,76,45,33,290,144,94,72,303,277,284,232,137,220,134,233,125,212]",32,13,1,0,0,0,113,113,82,1,,,,,,,,,,,,,,,,,,,,,,,
,,,,,,,,,,,,,,,,,,,,,,,,,,,,,,,,,,,,,,,,,,,5bc07e3768529a00011d148c,5fe19237c9707dbdf177b68e,2020-12-22_07h29.21.144,FlowerSimilarity_Experiment,2020.1.2,Win32,60,5fe17d4a51f3a9c1a60f9869,,,,,,,,,,,,,,,,,,,3,PF,,0,0.90173,,,,,,,,,,,,,,,,,,,,,,,,,,,,,,,,,,-38,123,1,0,0,response7disk,7,115,-1,11,1,0,0,rectangle,-1,11,1,0,0,7,5,"[256,81,98,76,45,33,290,144,94,72,303,277,284,232,137,220,134,233,125,212]",-1,11,1,0,0,0,114,114,41,1,,,,,,,,,,,,,,,,,,,,,,,
,,,,,,,,,,,,,,,,,,,,,,,,,,,,,,,,,,,,,,,,,,,5bc07e3768529a00011d148c,5fe19237c9707dbdf177b68e,2020-12-22_07h29.21.144,FlowerSimilarity_Experiment,2020.1.2,Win32,60,5fe17d4a51f3a9c1a60f9869,,,,,,,,,,,,,,,,,,,8,FF,,7,0.685645,,,,,,,,,,,,,,,,,,,,,,,,,,,,,,,,,,37,91,1,0,0,response1disk,9,116,-20,-8,1,0,0,rectangle,-20,-8,1,0,0,7,0,"[256,81,98,76,45,33,290,144,94,72,303,277,284,232,137,220,134,233,125,212]",-20,-8,1,0,0,0,115,115,105,1,,,,,,,,,,,,,,,,,,,,,,,
,,,,,,,,,,,,,,,,,,,,,,,,,,,,,,,,,,,,,,,,,,,5bc07e3768529a00011d148c,5fe19237c9707dbdf177b68e,2020-12-22_07h29.21.144,FlowerSimilarity_Experiment,2020.1.2,Win32,60,5fe17d4a51f3a9c1a60f9869,,,,,,,,,,,,,,,,,,,6,FF,,7,2.220775,,,,,,,,,,,,,,,,,,,,,,,,,,,,,,,,,,43,101,1,0,0,response1disk,5,117,19,12,1,0,0,rectangle,19,12,1,0,0,7,1,"[256,81,98,76,45,33,290,144,94,72,303,277,284,232,137,220,134,233,125,212]",19,12,1,0,0,0,116,116,126,1,,,,,,,,,,,,,,,,,,,,,,,
,,,,,,,,,,,,,,,,,,,,,,,,,,,,,,,,,,,,,,,,,,,5bc07e3768529a00011d148c,5fe19237c9707dbdf177b68e,2020-12-22_07h29.21.144,FlowerSimilarity_Experiment,2020.1.2,Win32,60,5fe17d4a51f3a9c1a60f9869,,,,,,,,,,,,,,,,,,,6,PF,,7,0.819395,,,,,,,,,,,,,,,,,,,,,,,,,,,,,,,,,,53,76,1,0,0,response1disk,1,118,27,-10,1,0,0,rectangle,27,-10,1,0,0,7,0,"[256,81,98,76,45,33,290,144,94,72,303,277,284,232,137,220,134,233,125,212]",27,-10,1,0,0,0,117,117,46,1,,,,,,,,,,,,,,,,,,,,,,,
,,,,,,,,,,,,,,,,,,,,,,,,,,,,,,,,,,,,,,,,,,,5bc07e3768529a00011d148c,5fe19237c9707dbdf177b68e,2020-12-22_07h29.21.144,FlowerSimilarity_Experiment,2020.1.2,Win32,60,5fe17d4a51f3a9c1a60f9869,,,,,,,,,,,,,,,,,,,2,PF,,4,0.87253,,,,,,,,,,,,,,,,,,,,,,,,,,,,,,,,,,51,-111,1,0,0,response3disk,3,119,8,-9,1,0,0,rectangle,8,-9,1,0,0,7,1,"[256,81,98,76,45,33,290,144,94,72,303,277,284,232,137,220,134,233,125,212]",8,-9,1,0,0,0,118,118,69,1,,,,,,,,,,,,,,,,,,,,,,,
,,,,,,,,,,,,,,,,,,,,,,,,,,,,,,,,,,,,,,,,,,,5bc07e3768529a00011d148c,5fe19237c9707dbdf177b68e,2020-12-22_07h29.21.144,FlowerSimilarity_Experiment,2020.1.2,Win32,60,5fe17d4a51f3a9c1a60f9869,,,,,,,,,,,,,,,,,,,3,FF,,4,1.03632,,,,,,,,,,,,,,,,,,,,,,,,,,,,,,,,,,56,-97,1,0,0,response3disk,1,120,-25,4,1,0,0,rectangle,-25,4,1,0,0,7,0,"[256,81,98,76,45,33,290,144,94,72,303,277,284,232,137,220,134,233,125,212]",-25,4,1,0,0,0,119,119,125,1,,,,,,,,,,,,,,,,,,,,,,,
,,,,,,,,,,,,,,,,,,,,,,,,,,,,,,,,,,,,,,,,,,,5bc07e3768529a00011d148c,5fe19237c9707dbdf177b68e,2020-12-22_07h29.21.144,FlowerSimilarity_Experiment,2020.1.2,Win32,60,5fe17d4a51f3a9c1a60f9869,,,,,,,,,,,,,,,,,,,4,FF,,4,0.718245,,,,,,,,,,,,,,,,,,,,,,,,,,,,,,,,,,46,-128,1,0,0,response3disk,5,121,-1,5,1,0,0,rectangle,-1,5,1,0,0,7,1,"[256,81,98,76,45,33,290,144,94,72,303,277,284,232,137,220,134,233,125,212]",-1,5,1,0,0,0,120,120,116,1,,,,,,,,,,,,,,,,,,,,,,,
,,,,,,,,,,,,,,,,,,,,,,,,,,,,,,,,,,,,,,,,,,,5bc07e3768529a00011d148c,5fe19237c9707dbdf177b68e,2020-12-22_07h29.21.144,FlowerSimilarity_Experiment,2020.1.2,Win32,60,5fe17d4a51f3a9c1a60f9869,,,,,,,,,,,,,,,,,,,1,PF,,7,0.71919,,,,,,,,,,,,,,,,,,,,,,,,,,,,,,,,,,38,106,1,0,0,response1disk,4,122,13,16,1,0,0,rectangle,13,16,1,0,0,7,4,"[256,81,98,76,45,33,290,144,94,72,303,277,284,232,137,220,134,233,125,212]",13,16,1,0,0,0,121,121,139,1,,,,,,,,,,,,,,,,,,,,,,,
,,,,,,,,,,,,,,,,,,,,,,,,,,,,,,,,,,,,,,,,,,,5bc07e3768529a00011d148c,5fe19237c9707dbdf177b68e,2020-12-22_07h29.21.144,FlowerSimilarity_Experiment,2020.1.2,Win32,60,5fe17d4a51f3a9c1a60f9869,,,,,,,,,,,,,,,,,,,9,PF,,7,0.735145,,,,,,,,,,,,,,,,,,,,,,,,,,,,,,,,,,71,84,1,0,0,response1disk,5,123,-1,3,1,0,0,rectangle,-1,3,1,0,0,7,4,"[256,81,98,76,45,33,290,144,94,72,303,277,284,232,137,220,134,233,125,212]",-1,3,1,0,0,0,122,122,134,1,,,,,,,,,,,,,,,,,,,,,,,
,,,,,,,,,,,,,,,,,,,,,,,,,,,,,,,,,,,,,,,,,,,5bc07e3768529a00011d148c,5fe19237c9707dbdf177b68e,2020-12-22_07h29.21.144,FlowerSimilarity_Experiment,2020.1.2,Win32,60,5fe17d4a51f3a9c1a60f9869,,,,,,,,,,,,,,,,,,,8,PF,,0,0.81932,,,,,,,,,,,,,,,,,,,,,,,,,,,,,,,,,,-22,108,1,0,0,response7disk,8,124,0,-1,1,0,0,rectangle,0,-1,1,0,0,7,3,"[256,81,98,76,45,33,290,144,94,72,303,277,284,232,137,220,134,233,125,212]",0,-1,1,0,0,0,123,123,153,1,,,,,,,,,,,,,,,,,,,,,,,
,,,,,,,,,,,,,,,,,,,,,,,,,,,,,,,,,,,,,,,,,,,5bc07e3768529a00011d148c,5fe19237c9707dbdf177b68e,2020-12-22_07h29.21.144,FlowerSimilarity_Experiment,2020.1.2,Win32,60,5fe17d4a51f3a9c1a60f9869,,,,,,,,,,,,,,,,,,,6,FF,,7,1.385245,,,,,,,,,,,,,,,,,,,,,,,,,,,,,,,,,,29,111,1,0,0,response1disk,4,125,15,-16,1,0,0,rectangle,-118,53,1,0,0,1,1,"[256,81,98,76,45,33,290,144,94,72,303,277,284,232,137,220,134,233,125,212]",-36,-1,1,0,0,0,124,124,56,1,response7disk_3,rectangle,,,,,,,,,,,,,,,,,,,,,
,,,,,,,,,,,,,,,,,,,,,,,,,,,,,,,,,,,,,,,,,,,5bc07e3768529a00011d148c,5fe19237c9707dbdf177b68e,2020-12-22_07h29.21.144,FlowerSimilarity_Experiment,2020.1.2,Win32,60,5fe17d4a51f3a9c1a60f9869,,,,,,,,,,,,,,,,,,,3,PF,,0,0.869395,,,,,,,,,,,,,,,,,,,,,,,,,,,,,,,,,,-48,109,1,0,0,response7disk,3,126,5,12,1,0,0,rectangle,5,12,1,0,0,1,0,"[256,81,98,76,45,33,290,144,94,72,303,277,284,232,137,220,134,233,125,212]",5,12,1,0,0,0,125,125,4,1,,,,,,,,,,,,,,,,,,,,,,,
,,,,,,,,,,,,,,,,,,,,,,,,,,,,,,,,,,,,,,,,,,,5bc07e3768529a00011d148c,5fe19237c9707dbdf177b68e,2020-12-22_07h29.21.144,FlowerSimilarity_Experiment,2020.1.2,Win32,60,5fe17d4a51f3a9c1a60f9869,,,,,,,,,,,,,,,,,,,2,FF,,7,1.08623,,,,,,,,,,,,,,,,,,,,,,,,,,,,,,,,,,58,108,1,0,0,response1disk,6,127,-11,-2,1,0,0,rectangle,-11,-2,1,0,0,1,5,"[256,81,98,76,45,33,290,144,94,72,303,277,284,232,137,220,134,233,125,212]",-11,-2,1,0,0,0,126,126,40,1,,,,,,,,,,,,,,,,,,,,,,,
,,,,,,,,,,,,,,,,,,,,,,,,,,,,,,,,,,,,,,,,,,,5bc07e3768529a00011d148c,5fe19237c9707dbdf177b68e,2020-12-22_07h29.21.144,FlowerSimilarity_Experiment,2020.1.2,Win32,60,5fe17d4a51f3a9c1a60f9869,,,,,,,,,,,,,,,,,,,5,PF,,6,0.85285,,,,,,,,,,,,,,,,,,,,,,,,,,,,,,,,,,94,91,1,0,0,response1disk,7,128,25,18,1,0,0,rectangle,25,18,1,0,0,1,6,"[256,81,98,76,45,33,290,144,94,72,303,277,284,232,137,220,134,233,125,212]",25,18,1,0,0,0,127,127,146,1,,,,,,,,,,,,,,,,,,,,,,,
,,,,,,,,,,,,,,,,,,,,,,,,,,,,,,,,,,,,,,,,,,,5bc07e3768529a00011d148c,5fe19237c9707dbdf177b68e,2020-12-22_07h29.21.144,FlowerSimilarity_Experiment,2020.1.2,Win32,60,5fe17d4a51f3a9c1a60f9869,,,,,,,,,,,,,,,,,,,3,PF,,7,0.769385,,,,,,,,,,,,,,,,,,,,,,,,,,,,,,,,,,86,90,1,0,0,response1disk,6,129,8,2,1,0,0,rectangle,8,2,1,0,0,1,5,"[256,81,98,76,45,33,290,144,94,72,303,277,284,232,137,220,134,233,125,212]",8,2,1,0,0,0,128,128,47,1,,,,,,,,,,,,,,,,,,,,,,,
,,,,,,,,,,,,,,,,,,,,,,,,,,,,,,,,,,,,,,,,,,,5bc07e3768529a00011d148c,5fe19237c9707dbdf177b68e,2020-12-22_07h29.21.144,FlowerSimilarity_Experiment,2020.1.2,Win32,60,5fe17d4a51f3a9c1a60f9869,,,,,,,,,,,,,,,,,,,5,FF,,7,0.902595,,,,,,,,,,,,,,,,,,,,,,,,,,,,,,,,,,58,93,1,0,0,response1disk,6,130,-23,4,1,0,0,rectangle,-23,4,1,0,0,1,6,"[256,81,98,76,45,33,290,144,94,72,303,277,284,232,137,220,134,233,125,212]",-23,4,1,0,0,0,129,129,12,1,,,,,,,,,,,,,,,,,,,,,,,
,,,,,,,,,,,,,,,,,,,,,,,,,,,,,,,,,,,,,,,,,,,5bc07e3768529a00011d148c,5fe19237c9707dbdf177b68e,2020-12-22_07h29.21.144,FlowerSimilarity_Experiment,2020.1.2,Win32,60,5fe17d4a51f3a9c1a60f9869,,,,,,,,,,,,,,,,,,,3,PF,,3,0.918695,,,,,,,,,,,,,,,,,,,,,,,,,,,,,,,,,,-36,-114,1,0,0,response5disk,9,131,1,-3,1,0,0,rectangle,1,-3,1,0,0,1,6,"[256,81,98,76,45,33,290,144,94,72,303,277,284,232,137,220,134,233,125,212]",1,-3,1,0,0,0,130,130,79,1,,,,,,,,,,,,,,,,,,,,,,,
,,,,,,,,,,,,,,,,,,,,,,,,,,,,,,,,,,,,,,,,,,,5bc07e3768529a00011d148c,5fe19237c9707dbdf177b68e,2020-12-22_07h29.21.144,FlowerSimilarity_Experiment,2020.1.2,Win32,60,5fe17d4a51f3a9c1a60f9869,,,,,,,,,,,,,,,,,,,9,FF,,7,0.919355,,,,,,,,,,,,,,,,,,,,,,,,,,,,,,,,,,46,98,1,0,0,response1disk,4,132,7,8,1,0,0,rectangle,7,8,1,0,0,1,1,"[256,81,98,76,45,33,290,144,94,72,303,277,284,232,137,220,134,233,125,212]",7,8,1,0,0,0,131,131,60,1,,,,,,,,,,,,,,,,,,,,,,,
,,,,,,,,,,,,,,,,,,,,,,,,,,,,,,,,,,,,,,,,,,,5bc07e3768529a00011d148c,5fe19237c9707dbdf177b68e,2020-12-22_07h29.21.144,FlowerSimilarity_Experiment,2020.1.2,Win32,60,5fe17d4a51f3a9c1a60f9869,,,,,,,,,,,,,,,,,,,9,FF,,4,1.53487,,,,,,,,,,,,,,,,,,,,,,,,,,,,,,,,,,37,-121,1,0,0,response3disk,8,133,6,2,1,0,0,rectangle,6,2,1,0,0,1,0,"[256,81,98,76,45,33,290,144,94,72,303,277,284,232,137,220,134,233,125,212]",6,2,1,0,0,0,132,132,6,1,,,,,,,,,,,,,,,,,,,,,,,
,,,,,,,,,,,,,,,,,,,,,,,,,,,,,,,,,,,,,,,,,,,5bc07e3768529a00011d148c,5fe19237c9707dbdf177b68e,2020-12-22_07h29.21.144,FlowerSimilarity_Experiment,2020.1.2,Win32,60,5fe17d4a51f3a9c1a60f9869,,,,,,,,,,,,,,,,,,,4,PF,,7,1.08628,,,,,,,,,,,,,,,,,,,,,,,,,,,,,,,,,,54,126,1,0,0,response1disk,2,134,24,-8,1,0,0,rectangle,-74,-121,1,0,0,3,3,"[256,81,98,76,45,33,290,144,94,72,303,277,284,232,137,220,134,233,125,212]",10,3,1,0,0,0,133,133,108,1,response5disk_3,rectangle,,,,,,,,,,,,,,,,,,,,,
,,,,,,,,,,,,,,,,,,,,,,,,,,,,,,,,,,,,,,,,,,,5bc07e3768529a00011d148c,5fe19237c9707dbdf177b68e,2020-12-22_07h29.21.144,FlowerSimilarity_Experiment,2020.1.2,Win32,60,5fe17d4a51f3a9c1a60f9869,,,,,,,,,,,,,,,,,,,2,FF,,3,1.10289,,,,,,,,,,,,,,,,,,,,,,,,,,,,,,,,,,-49,-76,1,0,0,response5disk,5,135,-29,-8,1,0,0,rectangle,-29,-8,1,0,0,3,2,"[256,81,98,76,45,33,290,144,94,72,303,277,284,232,137,220,134,233,125,212]",-29,-8,1,0,0,0,134,134,80,1,,,,,,,,,,,,,,,,,,,,,,,
,,,,,,,,,,,,,,,,,,,,,,,,,,,,,,,,,,,,,,,,,,,5bc07e3768529a00011d148c,5fe19237c9707dbdf177b68e,2020-12-22_07h29.21.144,FlowerSimilarity_Experiment,2020.1.2,Win32,60,5fe17d4a51f3a9c1a60f9869,,,,,,,,,,,,,,,,,,,8,FF,,3,0.702515,,,,,,,,,,,,,,,,,,,,,,,,,,,,,,,,,,-62,-110,1,0,0,response5disk,1,136,-5,12,1,0,0,rectangle,-5,12,1,0,0,3,2,"[256,81,98,76,45,33,290,144,94,72,303,277,284,232,137,220,134,233,125,212]",-5,12,1,0,0,0,135,135,20,1,,,,,,,,,,,,,,,,,,,,,,,
,,,,,,,,,,,,,,,,,,,,,,,,,,,,,,,,,,,,,,,,,,,5bc07e3768529a00011d148c,5fe19237c9707dbdf177b68e,2020-12-22_07h29.21.144,FlowerSimilarity_Experiment,2020.1.2,Win32,60,5fe17d4a51f3a9c1a60f9869,,,,,,,,,,,,,,,,,,,7,PF,,7,0.86935,,,,,,,,,,,,,,,,,,,,,,,,,,,,,,,,,,43,106,1,0,0,response1disk,1,137,9,6,1,0,0,rectangle,-123,-32,1,0,0,3,2,"[256,81,98,76,45,33,290,144,94,72,303,277,284,232,137,220,134,233,125,212]",-31,-4,1,0,0,0,136,136,53,1,response5disk_3,rectangle,,,,,,,,,,,,,,,,,,,,,
,,,,,,,,,,,,,,,,,,,,,,,,,,,,,,,,,,,,,,,,,,,5bc07e3768529a00011d148c,5fe19237c9707dbdf177b68e,2020-12-22_07h29.21.144,FlowerSimilarity_Experiment,2020.1.2,Win32,60,5fe17d4a51f3a9c1a60f9869,,,,,,,,,,,,,,,,,,,5,PF,,7,3.123105,,,,,,,,,,,,,,,,,,,,,,,,,,,,,,,,,,62,98,1,0,0,response1disk,1,138,13,-11,1,0,0,rectangle,13,-11,1,0,0,3,6,"[256,81,98,76,45,33,290,144,94,72,303,277,284,232,137,220,134,233,125,212]",13,-11,1,0,0,0,137,137,159,1,,,,,,,,,,,,,,,,,,,,,,,
,,,,,,,,,,,,,,,,,,,,,,,,,,,,,,,,,,,,,,,,,,,5bc07e3768529a00011d148c,5fe19237c9707dbdf177b68e,2020-12-22_07h29.21.144,FlowerSimilarity_Experiment,2020.1.2,Win32,60,5fe17d4a51f3a9c1a60f9869,,,,,,,,,,,,,,,,,,,8,FF,,7,0.75265,,,,,,,,,,,,,,,,,,,,,,,,,,,,,,,,,,53,109,1,0,0,response1disk,4,139,-6,5,1,0,0,rectangle,-6,5,1,0,0,3,5,"[256,81,98,76,45,33,290,144,94,72,303,277,284,232,137,220,134,233,125,212]",-6,5,1,0,0,0,138,138,88,1,,,,,,,,,,,,,,,,,,,,,,,
,,,,,,,,,,,,,,,,,,,,,,,,,,,,,,,,,,,,,,,,,,,5bc07e3768529a00011d148c,5fe19237c9707dbdf177b68e,2020-12-22_07h29.21.144,FlowerSimilarity_Experiment,2020.1.2,Win32,60,5fe17d4a51f3a9c1a60f9869,,,,,,,,,,,,,,,,,,,5,FF,,7,0.73588,,,,,,,,,,,,,,,,,,,,,,,,,,,,,,,,,,75,114,1,0,0,response1disk,4,140,10,3,1,0,0,rectangle,10,3,1,0,0,3,7,"[256,81,98,76,45,33,290,144,94,72,303,277,284,232,137,220,134,233,125,212]",10,3,1,0,0,0,139,139,8,1,,,,,,,,,,,,,,,,,,,,,,,
,,,,,,,,,,,,,,,,,,,,,,,,,,,,,,,,,,,,,,,,,,,5bc07e3768529a00011d148c,5fe19237c9707dbdf177b68e,2020-12-22_07h29.21.144,FlowerSimilarity_Experiment,2020.1.2,Win32,60,5fe17d4a51f3a9c1a60f9869,,,,,,,,,,,,,,,,,,,8,PF,,4,1.11948,,,,,,,,,,,,,,,,,,,,,,,,,,,,,,,,,,41,-95,1,0,0,response3disk,5,141,-14,17,1,0,0,rectangle,-14,17,1,0,0,3,4,"[256,81,98,76,45,33,290,144,94,72,303,277,284,232,137,220,134,233,125,212]",-14,17,1,0,0,0,140,140,98,1,,,,,,,,,,,,,,,,,,,,,,,
,,,,,,,,,,,,,,,,,,,,,,,,,,,,,,,,,,,,,,,,,,,5bc07e3768529a00011d148c,5fe19237c9707dbdf177b68e,2020-12-22_07h29.21.144,FlowerSimilarity_Experiment,2020.1.2,Win32,60,5fe17d4a51f3a9c1a60f9869,,,,,,,,,,,,,,,,,,,8,PF,,6,1.25298,,,,,,,,,,,,,,,,,,,,,,,,,,,,,,,,,,123,37,1,0,0,response1disk,2,142,-28,-11,1,0,0,rectangle,-28,-11,1,0,0,3,6,"[256,81,98,76,45,33,290,144,94,72,303,277,284,232,137,220,134,233,125,212]",-28,-11,1,0,0,0,141,141,83,1,,,,,,,,,,,,,,,,,,,,,,,
,,,,,,,,,,,,,,,,,,,,,,,,,,,,,,,,,,,,,,,,,,,5bc07e3768529a00011d148c,5fe19237c9707dbdf177b68e,2020-12-22_07h29.21.144,FlowerSimilarity_Experiment,2020.1.2,Win32,60,5fe17d4a51f3a9c1a60f9869,,,,,,,,,,,,,,,,,,,6,PF,,3,0.96806,,,,,,,,,,,,,,,,,,,,,,,,,,,,,,,,,,-42,-118,1,0,0,response5disk,9,143,-2,-6,1,0,0,rectangle,-2,-6,1,0,0,3,1,"[256,81,98,76,45,33,290,144,94,72,303,277,284,232,137,220,134,233,125,212]",-2,-6,1,0,0,0,142,142,45,1,,,,,,,,,,,,,,,,,,,,,,,
,,,,,,,,,,,,,,,,,,,,,,,,,,,,,,,,,,,,,,,,,,,5bc07e3768529a00011d148c,5fe19237c9707dbdf177b68e,2020-12-22_07h29.21.144,FlowerSimilarity_Experiment,2020.1.2,Win32,60,5fe17d4a51f3a9c1a60f9869,,,,,,,,,,,,,,,,,,,3,FF,,7,0.985095,,,,,,,,,,,,,,,,,,,,,,,,,,,,,,,,,,28,154,1,0,0,response1disk,4,144,5,0,1,0,0,rectangle,-117,46,1,0,0,1,1,"[256,81,98,76,45,33,290,144,94,72,303,277,284,232,137,220,134,233,125,212]",-22,-3,1,0,0,0,143,143,110,1,response7disk_3,rectangle,,,,,,,,,,,,,,,,,,,,,
,,,,,,,,,,,,,,,,,,,,,,,,,,,,,,,,,,,,,,,,,,,5bc07e3768529a00011d148c,5fe19237c9707dbdf177b68e,2020-12-22_07h29.21.144,FlowerSimilarity_Experiment,2020.1.2,Win32,60,5fe17d4a51f3a9c1a60f9869,,,,,,,,,,,,,,,,,,,2,FF,,4,1.25314,,,,,,,,,,,,,,,,,,,,,,,,,,,,,,,,,,49,-96,1,0,0,response3disk,3,145,18,-2,1,0,0,rectangle,18,-2,1,0,0,1,3,"[256,81,98,76,45,33,290,144,94,72,303,277,284,232,137,220,134,233,125,212]",18,-2,1,0,0,0,144,144,104,1,,,,,,,,,,,,,,,,,,,,,,,
,,,,,,,,,,,,,,,,,,,,,,,,,,,,,,,,,,,,,,,,,,,5bc07e3768529a00011d148c,5fe19237c9707dbdf177b68e,2020-12-22_07h29.21.144,FlowerSimilarity_Experiment,2020.1.2,Win32,60,5fe17d4a51f3a9c1a60f9869,,,,,,,,,,,,,,,,,,,7,PF,,0,0.984915,,,,,,,,,,,,,,,,,,,,,,,,,,,,,,,,,,-55,138,1,0,0,response7disk,7,146,-16,-19,1,0,0,rectangle,-16,-19,1,0,0,1,3,"[256,81,98,76,45,33,290,144,94,72,303,277,284,232,137,220,134,233,125,212]",-16,-19,1,0,0,0,145,145,51,1,,,,,,,,,,,,,,,,,,,,,,,
,,,,,,,,,,,,,,,,,,,,,,,,,,,,,,,,,,,,,,,,,,,5bc07e3768529a00011d148c,5fe19237c9707dbdf177b68e,2020-12-22_07h29.21.144,FlowerSimilarity_Experiment,2020.1.2,Win32,60,5fe17d4a51f3a9c1a60f9869,,,,,,,,,,,,,,,,,,,2,PF,,6,1.420005,,,,,,,,,,,,,,,,,,,,,,,,,,,,,,,,,,91,85,1,0,0,response1disk,6,147,10,-7,1,0,0,rectangle,10,-7,1,0,0,1,4,"[256,81,98,76,45,33,290,144,94,72,303,277,284,232,137,220,134,233,125,212]",10,-7,1,0,0,0,146,146,113,1,,,,,,,,,,,,,,,,,,,,,,,
,,,,,,,,,,,,,,,,,,,,,,,,,,,,,,,,,,,,,,,,,,,5bc07e3768529a00011d148c,5fe19237c9707dbdf177b68e,2020-12-22_07h29.21.144,FlowerSimilarity_Experiment,2020.1.2,Win32,60,5fe17d4a51f3a9c1a60f9869,,,,,,,,,,,,,,,,,,,3,FF,,6,0.969635,,,,,,,,,,,,,,,,,,,,,,,,,,,,,,,,,,143,45,1,0,0,response1disk,2,148,33,3,1,0,0,rectangle,33,3,1,0,0,1,5,"[256,81,98,76,45,33,290,144,94,72,303,277,284,232,137,220,134,233,125,212]",33,3,1,0,0,0,147,147,93,1,,,,,,,,,,,,,,,,,,,,,,,
,,,,,,,,,,,,,,,,,,,,,,,,,,,,,,,,,,,,,,,,,,,5bc07e3768529a00011d148c,5fe19237c9707dbdf177b68e,2020-12-22_07h29.21.144,FlowerSimilarity_Experiment,2020.1.2,Win32,60,5fe17d4a51f3a9c1a60f9869,,,,,,,,,,,,,,,,,,,8,PF,,5,1.196765,,,,,,,,,,,,,,,,,,,,,,,,,,,,,,,,,,109,-39,1,0,0,response3disk,1,149,2,13,1,0,0,rectangle,2,13,1,0,0,1,0,"[256,81,98,76,45,33,290,144,94,72,303,277,284,232,137,220,134,233,125,212]",2,13,1,0,0,0,148,148,57,1,,,,,,,,,,,,,,,,,,,,,,,
,,,,,,,,,,,,,,,,,,,,,,,,,,,,,,,,,,,,,,,,,,,5bc07e3768529a00011d148c,5fe19237c9707dbdf177b68e,2020-12-22_07h29.21.144,FlowerSimilarity_Experiment,2020.1.2,Win32,60,5fe17d4a51f3a9c1a60f9869,,,,,,,,,,,,,,,,,,,5,PF,,5,0.884945,,,,,,,,,,,,,,,,,,,,,,,,,,,,,,,,,,128,-61,1,0,0,response3disk,2,150,22,-10,1,0,0,rectangle,22,-10,1,0,0,1,6,"[256,81,98,76,45,33,290,144,94,72,303,277,284,232,137,220,134,233,125,212]",22,-10,1,0,0,0,149,149,129,1,,,,,,,,,,,,,,,,,,,,,,,
,,,,,,,,,,,,,,,,,,,,,,,,,,,,,,,,,,,,,,,,,,,5bc07e3768529a00011d148c,5fe19237c9707dbdf177b68e,2020-12-22_07h29.21.144,FlowerSimilarity_Experiment,2020.1.2,Win32,60,5fe17d4a51f3a9c1a60f9869,,,,,,,,,,,,,,,,,,,9,FF,,0,0.95221,,,,,,,,,,,,,,,,,,,,,,,,,,,,,,,,,,-60,139,1,0,0,response7disk,9,151,-16,-7,1,0,0,rectangle,-16,-7,1,0,0,1,2,"[256,81,98,76,45,33,290,144,94,72,303,277,284,232,137,220,134,233,125,212]",-16,-7,1,0,0,0,150,150,17,1,,,,,,,,,,,,,,,,,,,,,,,
,,,,,,,,,,,,,,,,,,,,,,,,,,,,,,,,,,,,,,,,,,,5bc07e3768529a00011d148c,5fe19237c9707dbdf177b68e,2020-12-22_07h29.21.144,FlowerSimilarity_Experiment,2020.1.2,Win32,60,5fe17d4a51f3a9c1a60f9869,,,,,,,,,,,,,,,,,,,1,PF,,5,1.102885,,,,,,,,,,,,,,,,,,,,,,,,,,,,,,,,,,97,-70,1,0,0,response3disk,8,152,-20,0,1,0,0,rectangle,-20,0,1,0,0,1,0,"[256,81,98,76,45,33,290,144,94,72,303,277,284,232,137,220,134,233,125,212]",-20,0,1,0,0,0,151,151,65,1,,,,,,,,,,,,,,,,,,,,,,,
,,,,,,,,,,,,,,,,,,,,,,,,,,,,,,,,,,,,,,,,,,,5bc07e3768529a00011d148c,5fe19237c9707dbdf177b68e,2020-12-22_07h29.21.144,FlowerSimilarity_Experiment,2020.1.2,Win32,60,5fe17d4a51f3a9c1a60f9869,,,,,,,,,,,,,,,,,,,7,PF,,5,1.01968,,,,,,,,,,,,,,,,,,,,,,,,,,,,,,,,,,164,-49,1,0,0,response3disk,9,153,12,-4,1,0,0,rectangle,12,-4,1,0,0,1,6,"[256,81,98,76,45,33,290,144,94,72,303,277,284,232,137,220,134,233,125,212]",12,-4,1,0,0,0,152,152,10,1,,,,,,,,,,,,,,,,,,,,,,,
,,,,,,,,,,,,,,,,,,,,,,,,,,,,,,,,,,,,,,,,,,,5bc07e3768529a00011d148c,5fe19237c9707dbdf177b68e,2020-12-22_07h29.21.144,FlowerSimilarity_Experiment,2020.1.2,Win32,60,5fe17d4a51f3a9c1a60f9869,,,,,,,,,,,,,,,,,,,7,FF,,6,0.76941,,,,,,,,,,,,,,,,,,,,,,,,,,,,,,,,,,142,55,1,0,0,response1disk,5,154,30,6,1,0,0,rectangle,30,6,1,0,0,1,6,"[256,81,98,76,45,33,290,144,94,72,303,277,284,232,137,220,134,233,125,212]",30,6,1,0,0,0,153,153,156,1,,,,,,,,,,,,,,,,,,,,,,,
,,,,,,,,,,,,,,,,,,,,,,,,,,,,,,,,,,,,,,,,,,,5bc07e3768529a00011d148c,5fe19237c9707dbdf177b68e,2020-12-22_07h29.21.144,FlowerSimilarity_Experiment,2020.1.2,Win32,60,5fe17d4a51f3a9c1a60f9869,,,,,,,,,,,,,,,,,,,2,PF,,7,1.15214,,,,,,,,,,,,,,,,,,,,,,,,,,,,,,,,,,34,136,1,0,0,response1disk,8,155,18,15,1,0,0,rectangle,18,15,1,0,0,1,0,"[256,81,98,76,45,33,290,144,94,72,303,277,284,232,137,220,134,233,125,212]",18,15,1,0,0,0,154,154,52,1,,,,,,,,,,,,,,,,,,,,,,,
,,,,,,,,,,,,,,,,,,,,,,,,,,,,,,,,,,,,,,,,,,,5bc07e3768529a00011d148c,5fe19237c9707dbdf177b68e,2020-12-22_07h29.21.144,FlowerSimilarity_Experiment,2020.1.2,Win32,60,5fe17d4a51f3a9c1a60f9869,,,,,,,,,,,,,,,,,,,4,FF,,7,0.6524,,,,,,,,,,,,,,,,,,,,,,,,,,,,,,,,,,60,118,1,0,0,response1disk,6,156,6,5,1,0,0,rectangle,6,5,1,0,0,1,5,"[256,81,98,76,45,33,290,144,94,72,303,277,284,232,137,220,134,233,125,212]",6,5,1,0,0,0,155,155,122,1,,,,,,,,,,,,,,,,,,,,,,,
,,,,,,,,,,,,,,,,,,,,,,,,,,,,,,,,,,,,,,,,,,,5bc07e3768529a00011d148c,5fe19237c9707dbdf177b68e,2020-12-22_07h29.21.144,FlowerSimilarity_Experiment,2020.1.2,Win32,60,5fe17d4a51f3a9c1a60f9869,,,,,,,,,,,,,,,,,,,5,PF,,7,0.719175,,,,,,,,,,,,,,,,,,,,,,,,,,,,,,,,,,61,120,1,0,0,response1disk,4,157,-9,-12,1,0,0,rectangle,-9,-12,1,0,0,1,7,"[256,81,98,76,45,33,290,144,94,72,303,277,284,232,137,220,134,233,125,212]",-9,-12,1,0,0,0,156,156,54,1,,,,,,,,,,,,,,,,,,,,,,,
,,,,,,,,,,,,,,,,,,,,,,,,,,,,,,,,,,,,,,,,,,,5bc07e3768529a00011d148c,5fe19237c9707dbdf177b68e,2020-12-22_07h29.21.144,FlowerSimilarity_Experiment,2020.1.2,Win32,60,5fe17d4a51f3a9c1a60f9869,,,,,,,,,,,,,,,,,,,6,FF,,7,0.752525,,,,,,,,,,,,,,,,,,,,,,,,,,,,,,,,,,29,115,1,0,0,response1disk,2,158,5,-2,1,0,0,rectangle,5,-2,1,0,0,1,4,"[256,81,98,76,45,33,290,144,94,72,303,277,284,232,137,220,134,233,125,212]",5,-2,1,0,0,0,157,157,112,1,,,,,,,,,,,,,,,,,,,,,,,
,,,,,,,,,,,,,,,,,,,,,,,,,,,,,,,,,,,,,,,,,,,5bc07e3768529a00011d148c,5fe19237c9707dbdf177b68e,2020-12-22_07h29.21.144,FlowerSimilarity_Experiment,2020.1.2,Win32,60,5fe17d4a51f3a9c1a60f9869,,,,,,,,,,,,,,,,,,,7,FF,,0,1.1849,,,,,,,,,,,,,,,,,,,,,,,,,,,,,,,,,,-35,100,1,0,0,response7disk,3,159,-7,-5,1,0,0,rectangle,-7,-5,1,0,0,1,5,"[256,81,98,76,45,33,290,144,94,72,303,277,284,232,137,220,134,233,125,212]",-7,-5,1,0,0,0,158,158,73,1,,,,,,,,,,,,,,,,,,,,,,,
,,,,,,,,,,,,,,,,,,,,,,,,,,,,,,,,,,,,,,,,,,,5bc07e3768529a00011d148c,5fe19237c9707dbdf177b68e,2020-12-22_07h29.21.144,FlowerSimilarity_Experiment,2020.1.2,Win32,60,5fe17d4a51f3a9c1a60f9869,,,,,,,,,,,,,,,,,,,4,PF,,0,1.853755,,,,,,,,,,,,,,,,,,,,,,,,,,,,,,,,,,-45,135,1,0,0,response7disk,9,160,1,8,1,0,0,rectangle,1,8,1,0,0,1,7,"[256,81,98,76,45,33,290,144,94,72,303,277,284,232,137,220,134,233,125,212]",1,8,1,0,0,0,159,159,75,1,,,,,,,,,,,,,,,,,,,,,,,
,,,,,,,,,,,,,,,,,,,,,,,,,,,,,,,,,,,,,,,,,,,5bc07e3768529a00011d148c,5fe19237c9707dbdf177b68e,2020-12-22_07h29.21.144,FlowerSimilarity_Experiment,2020.1.2,Win32,60,5fe17d4a51f3a9c1a60f9869,,,,,,,,,,,,,,,,,,,7,PF,,7,1.20297,,,,,,,,,,,,,,,,,,,,,,,,,,,,,,,,,,45,119,1,0,0,response1disk,6,161,20,5,1,0,0,rectangle,20,5,1,0,0,1,1,"[256,81,98,76,45,33,290,144,94,72,303,277,284,232,137,220,134,233,125,212]",20,5,1,0,0,0,160,160,29,1,,,,,,,,,,,,,,,,,,,,,,,
,,,,,,,,,,,,,,,,,,,,,,,,,,,,,,,,,,,,,,,,,,,5bc07e3768529a00011d148c,5fe19237c9707dbdf177b68e,2020-12-22_07h29.21.144,FlowerSimilarity_Experiment,2020.1.2,Win32,60,5fe17d4a51f3a9c1a60f9869,,,,,,,,,,,,,,,,,,,9,PF,,7,0.719465,,,,,,,,,,,,,,,,,,,,,,,,,,,,,,,,,,68,115,1,0,0,response1disk,2,162,18,-1,1,0,0,rectangle,18,-1,1,0,0,1,2,"[256,81,98,76,45,33,290,144,94,72,303,277,284,232,137,220,134,233,125,212]",18,-1,1,0,0,0,161,161,157,1,,,,,,,,,,,,,,,,,,,,,,,
,,,,,,,,,,,,,,,,,,,,,,,,,,,,,,,,,,,,,,,,,,,5bc07e3768529a00011d148c,5fe19237c9707dbdf177b68e,2020-12-22_07h29.21.144,FlowerSimilarity_Experiment,2020.1.2,Win32,60,5fe17d4a51f3a9c1a60f9869,,,,,,,,,,,,,,,,,,,,,,,,,,,,,,,,,,,,,,,,,,,,,,,,,,,,,,,,,,,,,,,,,,,,,,,,,,,,,,,,,,,,,,,,,,,0,0,0,0,1,,,,,,,,,,,,,,,,
,,,,,,,,,,,,,,,,,,,,,,,,,,,,,,,,,,,,,,,,,,,5bc07e3768529a00011d148c,5fe19237c9707dbdf177b68e,2020-12-22_07h29.21.144,FlowerSimilarity_Experiment,2020.1.2,Win32,60,5fe17d4a51f3a9c1a60f9869,,,,,,,,,,,,,,,,,,,3,PF,,7,0.61736,,,,,,,,,,,,,,,,,,,,,,,,,,,,,,,,,,83,90,1,0,0,response1disk,2,163,25,-2,1,0,0,rectangle,25,-2,1,0,0,1,6,"[256,81,98,76,45,33,290,144,94,72,303,277,284,232,137,220,134,233,125,212]",25,-2,1,0,0,0,0,0,36,1,,,,,,,,,,,,,,,,,,,,,,,
,,,,,,,,,,,,,,,,,,,,,,,,,,,,,,,,,,,,,,,,,,,5bc07e3768529a00011d148c,5fe19237c9707dbdf177b68e,2020-12-22_07h29.21.144,FlowerSimilarity_Experiment,2020.1.2,Win32,60,5fe17d4a51f3a9c1a60f9869,,,,,,,,,,,,,,,,,,,5,PF,,3,1.184595,,,,,,,,,,,,,,,,,,,,,,,,,,,,,,,,,,-62,-77,1,0,0,response5disk,8,164,26,6,1,0,0,rectangle,26,6,1,0,0,1,2,"[256,81,98,76,45,33,290,144,94,72,303,277,284,232,137,220,134,233,125,212]",26,6,1,0,0,0,1,1,149,1,,,,,,,,,,,,,,,,,,,,,,,
,,,,,,,,,,,,,,,,,,,,,,,,,,,,,,,,,,,,,,,,,,,5bc07e3768529a00011d148c,5fe19237c9707dbdf177b68e,2020-12-22_07h29.21.144,FlowerSimilarity_Experiment,2020.1.2,Win32,60,5fe17d4a51f3a9c1a60f9869,,,,,,,,,,,,,,,,,,,8,PF,,7,0.767535,,,,,,,,,,,,,,,,,,,,,,,,,,,,,,,,,,62,98,1,0,0,response1disk,4,165,-7,-1,1,0,0,rectangle,-7,-1,1,0,0,1,5,"[256,81,98,76,45,33,290,144,94,72,303,277,284,232,137,220,134,233,125,212]",-7,-1,1,0,0,0,2,2,78,1,,,,,,,,,,,,,,,,,,,,,,,
,,,,,,,,,,,,,,,,,,,,,,,,,,,,,,,,,,,,,,,,,,,5bc07e3768529a00011d148c,5fe19237c9707dbdf177b68e,2020-12-22_07h29.21.144,FlowerSimilarity_Experiment,2020.1.2,Win32,60,5fe17d4a51f3a9c1a60f9869,,,,,,,,,,,,,,,,,,,8,FF,,5,1.334775,,,,,,,,,,,,,,,,,,,,,,,,,,,,,,,,,,98,-36,1,0,0,response3disk,6,166,-11,4,1,0,0,rectangle,-11,4,1,0,0,1,1,"[256,81,98,76,45,33,290,144,94,72,303,277,284,232,137,220,134,233,125,212]",-11,4,1,0,0,0,3,3,37,1,,,,,,,,,,,,,,,,,,,,,,,
,,,,,,,,,,,,,,,,,,,,,,,,,,,,,,,,,,,,,,,,,,,5bc07e3768529a00011d148c,5fe19237c9707dbdf177b68e,2020-12-22_07h29.21.144,FlowerSimilarity_Experiment,2020.1.2,Win32,60,5fe17d4a51f3a9c1a60f9869,,,,,,,,,,,,,,,,,,,4,PF,,6,1.56801,,,,,,,,,,,,,,,,,,,,,,,,,,,,,,,,,,129,41,1,0,0,response1disk,7,167,8,-8,1,0,0,rectangle,8,-8,1,0,0,1,4,"[256,81,98,76,45,33,290,144,94,72,303,277,284,232,137,220,134,233,125,212]",8,-8,1,0,0,0,4,4,38,1,,,,,,,,,,,,,,,,,,,,,,,
,,,,,,,,,,,,,,,,,,,,,,,,,,,,,,,,,,,,,,,,,,,5bc07e3768529a00011d148c,5fe19237c9707dbdf177b68e,2020-12-22_07h29.21.144,FlowerSimilarity_Experiment,2020.1.2,Win32,60,5fe17d4a51f3a9c1a60f9869,,,,,,,,,,,,,,,,,,,9,FF,,6,1.417905,,,,,,,,,,,,,,,,,,,,,,,,,,,,,,,,,,128,52,1,0,0,response1disk,1,168,27,11,1,0,0,rectangle,27,11,1,0,0,1,4,"[256,81,98,76,45,33,290,144,94,72,303,277,284,232,137,220,134,233,125,212]",27,11,1,0,0,0,5,5,111,1,,,,,,,,,,,,,,,,,,,,,,,
,,,,,,,,,,,,,,,,,,,,,,,,,,,,,,,,,,,,,,,,,,,5bc07e3768529a00011d148c,5fe19237c9707dbdf177b68e,2020-12-22_07h29.21.144,FlowerSimilarity_Experiment,2020.1.2,Win32,60,5fe17d4a51f3a9c1a60f9869,,,,,,,,,,,,,,,,,,,4,PF,,6,1.06939,,,,,,,,,,,,,,,,,,,,,,,,,,,,,,,,,,116,52,1,0,0,response1disk,3,169,-2,6,1,0,0,rectangle,-2,6,1,0,0,1,1,"[256,81,98,76,45,33,290,144,94,72,303,277,284,232,137,220,134,233,125,212]",-2,6,1,0,0,0,6,6,89,1,,,,,,,,,,,,,,,,,,,,,,,
,,,,,,,,,,,,,,,,,,,,,,,,,,,,,,,,,,,,,,,,,,,5bc07e3768529a00011d148c,5fe19237c9707dbdf177b68e,2020-12-22_07h29.21.144,FlowerSimilarity_Experiment,2020.1.2,Win32,60,5fe17d4a51f3a9c1a60f9869,,,,,,,,,,,,,,,,,,,5,FF,,6,1.33518,,,,,,,,,,,,,,,,,,,,,,,,,,,,,,,,,,60,42,1,0,0,response1disk,8,170,10,13,1,0,0,rectangle,10,13,1,0,0,1,2,"[256,81,98,76,45,33,290,144,94,72,303,277,284,232,137,220,134,233,125,212]",10,13,1,0,0,0,7,7,16,1,,,,,,,,,,,,,,,,,,,,,,,
,,,,,,,,,,,,,,,,,,,,,,,,,,,,,,,,,,,,,,,,,,,5bc07e3768529a00011d148c,5fe19237c9707dbdf177b68e,2020-12-22_07h29.21.144,FlowerSimilarity_Experiment,2020.1.2,Win32,60,5fe17d4a51f3a9c1a60f9869,,,,,,,,,,,,,,,,,,,9,PF,,3,1.15325,,,,,,,,,,,,,,,,,,,,,,,,,,,,,,,,,,-50,-143,1,0,0,response5disk,6,171,31,9,1,0,0,rectangle,31,9,1,0,0,1,3,"[256,81,98,76,45,33,290,144,94,72,303,277,284,232,137,220,134,233,125,212]",31,9,1,0,0,0,8,8,148,1,,,,,,,,,,,,,,,,,,,,,,,
,,,,,,,,,,,,,,,,,,,,,,,,,,,,,,,,,,,,,,,,,,,5bc07e3768529a00011d148c,5fe19237c9707dbdf177b68e,2020-12-22_07h29.21.144,FlowerSimilarity_Experiment,2020.1.2,Win32,60,5fe17d4a51f3a9c1a60f9869,,,,,,,,,,,,,,,,,,,1,FF,,3,0.93624,,,,,,,,,,,,,,,,,,,,,,,,,,,,,,,,,,-48,-89,1,0,0,response5disk,9,172,3,-6,1,0,0,rectangle,3,-6,1,0,0,1,7,"[256,81,98,76,45,33,290,144,94,72,303,277,284,232,137,220,134,233,125,212]",3,-6,1,0,0,0,9,9,123,1,,,,,,,,,,,,,,,,,,,,,,,
,,,,,,,,,,,,,,,,,,,,,,,,,,,,,,,,,,,,,,,,,,,5bc07e3768529a00011d148c,5fe19237c9707dbdf177b68e,2020-12-22_07h29.21.144,FlowerSimilarity_Experiment,2020.1.2,Win32,60,5fe17d4a51f3a9c1a60f9869,,,,,,,,,,,,,,,,,,,5,FF,,6,1.369735,,,,,,,,,,,,,,,,,,,,,,,,,,,,,,,,,,95,46,1,0,0,response1disk,7,173,8,-9,1,0,0,rectangle,8,-9,1,0,0,1,0,"[256,81,98,76,45,33,290,144,94,72,303,277,284,232,137,220,134,233,125,212]",8,-9,1,0,0,0,10,10,7,1,,,,,,,,,,,,,,,,,,,,,,,
,,,,,,,,,,,,,,,,,,,,,,,,,,,,,,,,,,,,,,,,,,,5bc07e3768529a00011d148c,5fe19237c9707dbdf177b68e,2020-12-22_07h29.21.144,FlowerSimilarity_Experiment,2020.1.2,Win32,60,5fe17d4a51f3a9c1a60f9869,,,,,,,,,,,,,,,,,,,2,PF,,6,1.068445,,,,,,,,,,,,,,,,,,,,,,,,,,,,,,,,,,106,55,1,0,0,response1disk,7,174,7,-10,1,0,0,rectangle,7,-10,1,0,0,1,5,"[256,81,98,76,45,33,290,144,94,72,303,277,284,232,137,220,134,233,125,212]",7,-10,1,0,0,0,11,11,107,1,,,,,,,,,,,,,,,,,,,,,,,
,,,,,,,,,,,,,,,,,,,,,,,,,,,,,,,,,,,,,,,,,,,5bc07e3768529a00011d148c,5fe19237c9707dbdf177b68e,2020-12-22_07h29.21.144,FlowerSimilarity_Experiment,2020.1.2,Win32,60,5fe17d4a51f3a9c1a60f9869,,,,,,,,,,,,,,,,,,,2,FF,,6,0.634605,,,,,,,,,,,,,,,,,,,,,,,,,,,,,,,,,,97,68,1,0,0,response1disk,4,175,10,2,1,0,0,rectangle,10,2,1,0,0,1,2,"[256,81,98,76,45,33,290,144,94,72,303,277,284,232,137,220,134,233,125,212]",10,2,1,0,0,0,12,12,145,1,,,,,,,,,,,,,,,,,,,,,,,
,,,,,,,,,,,,,,,,,,,,,,,,,,,,,,,,,,,,,,,,,,,5bc07e3768529a00011d148c,5fe19237c9707dbdf177b68e,2020-12-22_07h29.21.144,FlowerSimilarity_Experiment,2020.1.2,Win32,60,5fe17d4a51f3a9c1a60f9869,,,,,,,,,,,,,,,,,,,9,FF,,6,0.86936,,,,,,,,,,,,,,,,,,,,,,,,,,,,,,,,,,108,62,1,0,0,response1disk,3,176,-15,18,1,0,0,rectangle,-15,18,1,0,0,1,6,"[256,81,98,76,45,33,290,144,94,72,303,277,284,232,137,220,134,233,125,212]",-15,18,1,0,0,0,13,13,141,1,,,,,,,,,,,,,,,,,,,,,,,
,,,,,,,,,,,,,,,,,,,,,,,,,,,,,,,,,,,,,,,,,,,5bc07e3768529a00011d148c,5fe19237c9707dbdf177b68e,2020-12-22_07h29.21.144,FlowerSimilarity_Experiment,2020.1.2,Win32,60,5fe17d4a51f3a9c1a60f9869,,,,,,,,,,,,,,,,,,,4,FF,,4,1.7536,,,,,,,,,,,,,,,,,,,,,,,,,,,,,,,,,,64,-94,1,0,0,response3disk,2,177,47,-16,1,0,0,rectangle,47,-16,1,0,0,1,6,"[256,81,98,76,45,33,290,144,94,72,303,277,284,232,137,220,134,233,125,212]",47,-16,1,0,0,0,14,14,13,1,,,,,,,,,,,,,,,,,,,,,,,
,,,,,,,,,,,,,,,,,,,,,,,,,,,,,,,,,,,,,,,,,,,5bc07e3768529a00011d148c,5fe19237c9707dbdf177b68e,2020-12-22_07h29.21.144,FlowerSimilarity_Experiment,2020.1.2,Win32,60,5fe17d4a51f3a9c1a60f9869,,,,,,,,,,,,,,,,,,,9,PF,,7,1.002885,,,,,,,,,,,,,,,,,,,,,,,,,,,,,,,,,,82,128,1,0,0,response1disk,7,178,4,-1,1,0,0,rectangle,4,-1,1,0,0,1,0,"[256,81,98,76,45,33,290,144,94,72,303,277,284,232,137,220,134,233,125,212]",4,-1,1,0,0,0,15,15,121,1,,,,,,,,,,,,,,,,,,,,,,,
,,,,,,,,,,,,,,,,,,,,,,,,,,,,,,,,,,,,,,,,,,,5bc07e3768529a00011d148c,5fe19237c9707dbdf177b68e,2020-12-22_07h29.21.144,FlowerSimilarity_Experiment,2020.1.2,Win32,60,5fe17d4a51f3a9c1a60f9869,,,,,,,,,,,,,,,,,,,1,FF,,0,1.00306,,,,,,,,,,,,,,,,,,,,,,,,,,,,,,,,,,-49,109,1,0,0,response7disk,1,179,-27,7,1,0,0,rectangle,-27,7,1,0,0,1,7,"[256,81,98,76,45,33,290,144,94,72,303,277,284,232,137,220,134,233,125,212]",-27,7,1,0,0,0,16,16,151,1,,,,,,,,,,,,,,,,,,,,,,,
,,,,,,,,,,,,,,,,,,,,,,,,,,,,,,,,,,,,,,,,,,,5bc07e3768529a00011d148c,5fe19237c9707dbdf177b68e,2020-12-22_07h29.21.144,FlowerSimilarity_Experiment,2020.1.2,Win32,60,5fe17d4a51f3a9c1a60f9869,,,,,,,,,,,,,,,,,,,4,PF,,0,0.76779,,,,,,,,,,,,,,,,,,,,,,,,,,,,,,,,,,-44,123,1,0,0,response7disk,4,180,-37,4,1,0,0,rectangle,-37,4,1,0,0,1,7,"[256,81,98,76,45,33,290,144,94,72,303,277,284,232,137,220,134,233,125,212]",-37,4,1,0,0,0,17,17,70,1,,,,,,,,,,,,,,,,,,,,,,,
,,,,,,,,,,,,,,,,,,,,,,,,,,,,,,,,,,,,,,,,,,,5bc07e3768529a00011d148c,5fe19237c9707dbdf177b68e,2020-12-22_07h29.21.144,FlowerSimilarity_Experiment,2020.1.2,Win32,60,5fe17d4a51f3a9c1a60f9869,,,,,,,,,,,,,,,,,,,2,FF,,2,2.55307,,,,,,,,,,,,,,,,,,,,,,,,,,,,,,,,,,-143,-52,1,0,0,response5disk,1,181,-15,-5,1,0,0,rectangle,-15,-5,1,0,0,1,0,"[256,81,98,76,45,33,290,144,94,72,303,277,284,232,137,220,134,233,125,212]",-15,-5,1,0,0,0,18,18,85,1,,,,,,,,,,,,,,,,,,,,,,,
,,,,,,,,,,,,,,,,,,,,,,,,,,,,,,,,,,,,,,,,,,,5bc07e3768529a00011d148c,5fe19237c9707dbdf177b68e,2020-12-22_07h29.21.144,FlowerSimilarity_Experiment,2020.1.2,Win32,60,5fe17d4a51f3a9c1a60f9869,,,,,,,,,,,,,,,,,,,9,PF,,6,4.00567,,,,,,,,,,,,,,,,,,,,,,,,,,,,,,,,,,110,29,1,0,0,response1disk,8,182,-45,-3,1,0,0,rectangle,-45,-3,1,0,0,1,5,"[256,81,98,76,45,33,290,144,94,72,303,277,284,232,137,220,134,233,125,212]",-45,-3,1,0,0,0,19,19,67,1,,,,,,,,,,,,,,,,,,,,,,,
,,,,,,,,,,,,,,,,,,,,,,,,,,,,,,,,,,,,,,,,,,,5bc07e3768529a00011d148c,5fe19237c9707dbdf177b68e,2020-12-22_07h29.21.144,FlowerSimilarity_Experiment,2020.1.2,Win32,60,5fe17d4a51f3a9c1a60f9869,,,,,,,,,,,,,,,,,,,9,FF,,7,1.303245,,,,,,,,,,,,,,,,,,,,,,,,,,,,,,,,,,43,109,1,0,0,response1disk,2,183,-6,-9,1,0,0,rectangle,-6,-9,1,0,0,1,3,"[256,81,98,76,45,33,290,144,94,72,303,277,284,232,137,220,134,233,125,212]",-6,-9,1,0,0,0,20,20,11,1,,,,,,,,,,,,,,,,,,,,,,,
,,,,,,,,,,,,,,,,,,,,,,,,,,,,,,,,,,,,,,,,,,,5bc07e3768529a00011d148c,5fe19237c9707dbdf177b68e,2020-12-22_07h29.21.144,FlowerSimilarity_Experiment,2020.1.2,Win32,60,5fe17d4a51f3a9c1a60f9869,,,,,,,,,,,,,,,,,,,4,FF,,0,0.819125,,,,,,,,,,,,,,,,,,,,,,,,,,,,,,,,,,-36,106,1,0,0,response7disk,4,184,8,8,1,0,0,rectangle,8,8,1,0,0,1,4,"[256,81,98,76,45,33,290,144,94,72,303,277,284,232,137,220,134,233,125,212]",8,8,1,0,0,0,21,21,84,1,,,,,,,,,,,,,,,,,,,,,,,
,,,,,,,,,,,,,,,,,,,,,,,,,,,,,,,,,,,,,,,,,,,5bc07e3768529a00011d148c,5fe19237c9707dbdf177b68e,2020-12-22_07h29.21.144,FlowerSimilarity_Experiment,2020.1.2,Win32,60,5fe17d4a51f3a9c1a60f9869,,,,,,,,,,,,,,,,,,,3,FF,,0,0.902885,,,,,,,,,,,,,,,,,,,,,,,,,,,,,,,,,,-44,107,1,0,0,response7disk,7,185,2,-19,1,0,0,rectangle,2,-19,1,0,0,1,7,"[256,81,98,76,45,33,290,144,94,72,303,277,284,232,137,220,134,233,125,212]",2,-19,1,0,0,0,22,22,118,1,,,,,,,,,,,,,,,,,,,,,,,
,,,,,,,,,,,,,,,,,,,,,,,,,,,,,,,,,,,,,,,,,,,5bc07e3768529a00011d148c,5fe19237c9707dbdf177b68e,2020-12-22_07h29.21.144,FlowerSimilarity_Experiment,2020.1.2,Win32,60,5fe17d4a51f3a9c1a60f9869,,,,,,,,,,,,,,,,,,,3,FF,,6,0.90262,,,,,,,,,,,,,,,,,,,,,,,,,,,,,,,,,,124,44,1,0,0,response1disk,5,186,5,1,1,0,0,rectangle,5,1,1,0,0,1,3,"[256,81,98,76,45,33,290,144,94,72,303,277,284,232,137,220,134,233,125,212]",5,1,1,0,0,0,23,23,101,1,,,,,,,,,,,,,,,,,,,,,,,
,,,,,,,,,,,,,,,,,,,,,,,,,,,,,,,,,,,,,,,,,,,5bc07e3768529a00011d148c,5fe19237c9707dbdf177b68e,2020-12-22_07h29.21.144,FlowerSimilarity_Experiment,2020.1.2,Win32,60,5fe17d4a51f3a9c1a60f9869,,,,,,,,,,,,,,,,,,,4,PF,,6,0.95231,,,,,,,,,,,,,,,,,,,,,,,,,,,,,,,,,,148,47,1,0,0,response1disk,8,187,-4,-6,1,0,0,rectangle,-4,-6,1,0,0,1,4,"[256,81,98,76,45,33,290,144,94,72,303,277,284,232,137,220,134,233,125,212]",-4,-6,1,0,0,0,24,24,124,1,,,,,,,,,,,,,,,,,,,,,,,
,,,,,,,,,,,,,,,,,,,,,,,,,,,,,,,,,,,,,,,,,,,5bc07e3768529a00011d148c,5fe19237c9707dbdf177b68e,2020-12-22_07h29.21.144,FlowerSimilarity_Experiment,2020.1.2,Win32,60,5fe17d4a51f3a9c1a60f9869,,,,,,,,,,,,,,,,,,,7,PF,,6,0.9515,,,,,,,,,,,,,,,,,,,,,,,,,,,,,,,,,,102,38,1,0,0,response1disk,8,188,13,-2,1,0,0,rectangle,13,-2,1,0,0,1,7,"[256,81,98,76,45,33,290,144,94,72,303,277,284,232,137,220,134,233,125,212]",13,-2,1,0,0,0,25,25,140,1,,,,,,,,,,,,,,,,,,,,,,,
,,,,,,,,,,,,,,,,,,,,,,,,,,,,,,,,,,,,,,,,,,,5bc07e3768529a00011d148c,5fe19237c9707dbdf177b68e,2020-12-22_07h29.21.144,FlowerSimilarity_Experiment,2020.1.2,Win32,60,5fe17d4a51f3a9c1a60f9869,,,,,,,,,,,,,,,,,,,2,FF,,7,1.001585,,,,,,,,,,,,,,,,,,,,,,,,,,,,,,,,,,37,120,1,0,0,response1disk,8,189,8,-2,1,0,0,rectangle,8,-2,1,0,0,1,6,"[256,81,98,76,45,33,290,144,94,72,303,277,284,232,137,220,134,233,125,212]",8,-2,1,0,0,0,26,26,62,1,,,,,,,,,,,,,,,,,,,,,,,
,,,,,,,,,,,,,,,,,,,,,,,,,,,,,,,,,,,,,,,,,,,5bc07e3768529a00011d148c,5fe19237c9707dbdf177b68e,2020-12-22_07h29.21.144,FlowerSimilarity_Experiment,2020.1.2,Win32,60,5fe17d4a51f3a9c1a60f9869,,,,,,,,,,,,,,,,,,,7,FF,,7,0.83461,,,,,,,,,,,,,,,,,,,,,,,,,,,,,,,,,,48,91,1,0,0,response1disk,6,190,19,19,1,0,0,rectangle,19,19,1,0,0,1,5,"[256,81,98,76,45,33,290,144,94,72,303,277,284,232,137,220,134,233,125,212]",19,19,1,0,0,0,27,27,31,1,,,,,,,,,,,,,,,,,,,,,,,
,,,,,,,,,,,,,,,,,,,,,,,,,,,,,,,,,,,,,,,,,,,5bc07e3768529a00011d148c,5fe19237c9707dbdf177b68e,2020-12-22_07h29.21.144,FlowerSimilarity_Experiment,2020.1.2,Win32,60,5fe17d4a51f3a9c1a60f9869,,,,,,,,,,,,,,,,,,,9,PF,,7,1.75239,,,,,,,,,,,,,,,,,,,,,,,,,,,,,,,,,,57,95,1,0,0,response1disk,1,191,21,5,1,0,0,rectangle,21,5,1,0,0,1,4,"[256,81,98,76,45,33,290,144,94,72,303,277,284,232,137,220,134,233,125,212]",21,5,1,0,0,0,28,28,74,1,,,,,,,,,,,,,,,,,,,,,,,
,,,,,,,,,,,,,,,,,,,,,,,,,,,,,,,,,,,,,,,,,,,5bc07e3768529a00011d148c,5fe19237c9707dbdf177b68e,2020-12-22_07h29.21.144,FlowerSimilarity_Experiment,2020.1.2,Win32,60,5fe17d4a51f3a9c1a60f9869,,,,,,,,,,,,,,,,,,,3,FF,,7,0.68458,,,,,,,,,,,,,,,,,,,,,,,,,,,,,,,,,,48,92,1,0,0,response1disk,8,192,9,8,1,0,0,rectangle,9,8,1,0,0,1,7,"[256,81,98,76,45,33,290,144,94,72,303,277,284,232,137,220,134,233,125,212]",9,8,1,0,0,0,29,29,44,1,,,,,,,,,,,,,,,,,,,,,,,
,,,,,,,,,,,,,,,,,,,,,,,,,,,,,,,,,,,,,,,,,,,5bc07e3768529a00011d148c,5fe19237c9707dbdf177b68e,2020-12-22_07h29.21.144,FlowerSimilarity_Experiment,2020.1.2,Win32,60,5fe17d4a51f3a9c1a60f9869,,,,,,,,,,,,,,,,,,,6,PF,,7,0.767825,,,,,,,,,,,,,,,,,,,,,,,,,,,,,,,,,,54,83,1,0,0,response1disk,4,193,12,-5,1,0,0,rectangle,12,-5,1,0,0,1,4,"[256,81,98,76,45,33,290,144,94,72,303,277,284,232,137,220,134,233,125,212]",12,-5,1,0,0,0,30,30,33,1,,,,,,,,,,,,,,,,,,,,,,,
,,,,,,,,,,,,,,,,,,,,,,,,,,,,,,,,,,,,,,,,,,,5bc07e3768529a00011d148c,5fe19237c9707dbdf177b68e,2020-12-22_07h29.21.144,FlowerSimilarity_Experiment,2020.1.2,Win32,60,5fe17d4a51f3a9c1a60f9869,,,,,,,,,,,,,,,,,,,1,FF,,2,1.553485,,,,,,,,,,,,,,,,,,,,,,,,,,,,,,,,,,-101,-47,1,0,0,response5disk,4,194,-4,-15,1,0,0,rectangle,-4,-15,1,0,0,1,3,"[256,81,98,76,45,33,290,144,94,72,303,277,284,232,137,220,134,233,125,212]",-4,-15,1,0,0,0,31,31,135,1,,,,,,,,,,,,,,,,,,,,,,,
,,,,,,,,,,,,,,,,,,,,,,,,,,,,,,,,,,,,,,,,,,,5bc07e3768529a00011d148c,5fe19237c9707dbdf177b68e,2020-12-22_07h29.21.144,FlowerSimilarity_Experiment,2020.1.2,Win32,60,5fe17d4a51f3a9c1a60f9869,,,,,,,,,,,,,,,,,,,5,FF,,2,0.934755,,,,,,,,,,,,,,,,,,,,,,,,,,,,,,,,,,-87,-76,1,0,0,response5disk,2,195,43,-10,1,0,0,rectangle,43,-10,1,0,0,1,3,"[256,81,98,76,45,33,290,144,94,72,303,277,284,232,137,220,134,233,125,212]",43,-10,1,0,0,0,32,32,55,1,,,,,,,,,,,,,,,,,,,,,,,
,,,,,,,,,,,,,,,,,,,,,,,,,,,,,,,,,,,,,,,,,,,5bc07e3768529a00011d148c,5fe19237c9707dbdf177b68e,2020-12-22_07h29.21.144,FlowerSimilarity_Experiment,2020.1.2,Win32,60,5fe17d4a51f3a9c1a60f9869,,,,,,,,,,,,,,,,,,,5,FF,,1,2.431975,,,,,,,,,,,,,,,,,,,,,,,,,,,,,,,,,,-100,41,1,0,0,response7disk,9,196,-14,-3,1,0,0,rectangle,-14,-3,1,0,0,1,2,"[256,81,98,76,45,33,290,144,94,72,303,277,284,232,137,220,134,233,125,212]",-14,-3,1,0,0,0,33,33,61,1,,,,,,,,,,,,,,,,,,,,,,,
,,,,,,,,,,,,,,,,,,,,,,,,,,,,,,,,,,,,,,,,,,,5bc07e3768529a00011d148c,5fe19237c9707dbdf177b68e,2020-12-22_07h29.21.144,FlowerSimilarity_Experiment,2020.1.2,Win32,60,5fe17d4a51f3a9c1a60f9869,,,,,,,,,,,,,,,,,,,5,FF,,0,0.93475,,,,,,,,,,,,,,,,,,,,,,,,,,,,,,,,,,-50,105,1,0,0,response7disk,5,197,-11,-14,1,0,0,rectangle,-11,-14,1,0,0,1,5,"[256,81,98,76,45,33,290,144,94,72,303,277,284,232,137,220,134,233,125,212]",-11,-14,1,0,0,0,34,34,19,1,,,,,,,,,,,,,,,,,,,,,,,
,,,,,,,,,,,,,,,,,,,,,,,,,,,,,,,,,,,,,,,,,,,5bc07e3768529a00011d148c,5fe19237c9707dbdf177b68e,2020-12-22_07h29.21.144,FlowerSimilarity_Experiment,2020.1.2,Win32,60,5fe17d4a51f3a9c1a60f9869,,,,,,,,,,,,,,,,,,,5,PF,,5,1.186345,,,,,,,,,,,,,,,,,,,,,,,,,,,,,,,,,,124,-66,1,0,0,response3disk,3,198,-22,7,1,0,0,rectangle,-22,7,1,0,0,1,5,"[256,81,98,76,45,33,290,144,94,72,303,277,284,232,137,220,134,233,125,212]",-22,7,1,0,0,0,35,35,109,1,,,,,,,,,,,,,,,,,,,,,,,
,,,,,,,,,,,,,,,,,,,,,,,,,,,,,,,,,,,,,,,,,,,5bc07e3768529a00011d148c,5fe19237c9707dbdf177b68e,2020-12-22_07h29.21.144,FlowerSimilarity_Experiment,2020.1.2,Win32,60,5fe17d4a51f3a9c1a60f9869,,,,,,,,,,,,,,,,,,,2,FF,,5,0.768325,,,,,,,,,,,,,,,,,,,,,,,,,,,,,,,,,,105,-60,1,0,0,response3disk,7,199,13,-2,1,0,0,rectangle,13,-2,1,0,0,1,3,"[256,81,98,76,45,33,290,144,94,72,303,277,284,232,137,220,134,233,125,212]",13,-2,1,0,0,0,36,36,63,1,,,,,,,,,,,,,,,,,,,,,,,
,,,,,,,,,,,,,,,,,,,,,,,,,,,,,,,,,,,,,,,,,,,5bc07e3768529a00011d148c,5fe19237c9707dbdf177b68e,2020-12-22_07h29.21.144,FlowerSimilarity_Experiment,2020.1.2,Win32,60,5fe17d4a51f3a9c1a60f9869,,,,,,,,,,,,,,,,,,,6,FF,,3,1.169865,,,,,,,,,,,,,,,,,,,,,,,,,,,,,,,,,,-37,-113,1,0,0,response5disk,8,200,-1,-1,1,0,0,rectangle,-1,-1,1,0,0,1,7,"[256,81,98,76,45,33,290,144,94,72,303,277,284,232,137,220,134,233,125,212]",-1,-1,1,0,0,0,37,37,133,1,,,,,,,,,,,,,,,,,,,,,,,
,,,,,,,,,,,,,,,,,,,,,,,,,,,,,,,,,,,,,,,,,,,5bc07e3768529a00011d148c,5fe19237c9707dbdf177b68e,2020-12-22_07h29.21.144,FlowerSimilarity_Experiment,2020.1.2,Win32,60,5fe17d4a51f3a9c1a60f9869,,,,,,,,,,,,,,,,,,,4,PF,,7,1.77041,,,,,,,,,,,,,,,,,,,,,,,,,,,,,,,,,,36,86,1,0,0,response1disk,5,201,-4,11,1,0,0,rectangle,-4,11,1,0,0,1,5,"[256,81,98,76,45,33,290,144,94,72,303,277,284,232,137,220,134,233,125,212]",-4,11,1,0,0,0,38,38,49,1,,,,,,,,,,,,,,,,,,,,,,,
,,,,,,,,,,,,,,,,,,,,,,,,,,,,,,,,,,,,,,,,,,,5bc07e3768529a00011d148c,5fe19237c9707dbdf177b68e,2020-12-22_07h29.21.144,FlowerSimilarity_Experiment,2020.1.2,Win32,60,5fe17d4a51f3a9c1a60f9869,,,,,,,,,,,,,,,,,,,1,FF,,1,1.185045,,,,,,,,,,,,,,,,,,,,,,,,,,,,,,,,,,-112,57,1,0,0,response7disk,2,202,17,-10,1,0,0,rectangle,17,-10,1,0,0,1,6,"[256,81,98,76,45,33,290,144,94,72,303,277,284,232,137,220,134,233,125,212]",17,-10,1,0,0,0,39,39,2,1,,,,,,,,,,,,,,,,,,,,,,,
,,,,,,,,,,,,,,,,,,,,,,,,,,,,,,,,,,,,,,,,,,,5bc07e3768529a00011d148c,5fe19237c9707dbdf177b68e,2020-12-22_07h29.21.144,FlowerSimilarity_Experiment,2020.1.2,Win32,60,5fe17d4a51f3a9c1a60f9869,,,,,,,,,,,,,,,,,,,8,PF,,7,0.802605,,,,,,,,,,,,,,,,,,,,,,,,,,,,,,,,,,61,88,1,0,0,response1disk,7,203,16,3,1,0,0,rectangle,16,3,1,0,0,1,6,"[256,81,98,76,45,33,290,144,94,72,303,277,284,232,137,220,134,233,125,212]",16,3,1,0,0,0,40,40,23,1,,,,,,,,,,,,,,,,,,,,,,,
,,,,,,,,,,,,,,,,,,,,,,,,,,,,,,,,,,,,,,,,,,,5bc07e3768529a00011d148c,5fe19237c9707dbdf177b68e,2020-12-22_07h29.21.144,FlowerSimilarity_Experiment,2020.1.2,Win32,60,5fe17d4a51f3a9c1a60f9869,,,,,,,,,,,,,,,,,,,7,FF,,7,3.27179,,,,,,,,,,,,,,,,,,,,,,,,,,,,,,,,,,44,85,1,0,0,response1disk,2,204,19,10,1,0,0,rectangle,19,10,1,0,0,1,5,"[256,81,98,76,45,33,290,144,94,72,303,277,284,232,137,220,134,233,125,212]",19,10,1,0,0,0,41,41,138,1,,,,,,,,,,,,,,,,,,,,,,,
,,,,,,,,,,,,,,,,,,,,,,,,,,,,,,,,,,,,,,,,,,,5bc07e3768529a00011d148c,5fe19237c9707dbdf177b68e,2020-12-22_07h29.21.144,FlowerSimilarity_Experiment,2020.1.2,Win32,60,5fe17d4a51f3a9c1a60f9869,,,,,,,,,,,,,,,,,,,1,FF,,3,1.403,,,,,,,,,,,,,,,,,,,,,,,,,,,,,,,,,,-70,-106,1,0,0,response5disk,7,205,-13,-11,1,0,0,rectangle,-13,-11,1,0,0,1,5,"[256,81,98,76,45,33,290,144,94,72,303,277,284,232,137,220,134,233,125,212]",-13,-11,1,0,0,0,42,42,137,1,,,,,,,,,,,,,,,,,,,,,,,
