key_resp.keys,key_resp.rt,key_resp_16.keys,key_resp_16.rt,key_resp_2.keys,key_resp_2.rt,X Scale,ratio_pxpermm,screen_size_x,screen_size_y,testsize,key_resp_3.keys,key_resp_3.rt,key_resp_4.keys,key_resp_4.rt,line_size,key_resp_5.keys,key_resp_5.rt,key_resp_6.keys,key_resp_6.rt,key_resp_8.keys,key_resp_8.rt,key_resp_7.keys,key_resp_7.rt,key_resp_12.keys,key_resp_12.rt,key_resp_11.keys,key_resp_11.rt,key_resp_18.keys,key_resp_18.rt,key_resp_21.keys,key_resp_21.rt,key_resp_13.keys,key_resp_13.rt,key_resp_19.keys,key_resp_19.rt,ballposx,viewer_distance,trials.thisRepN,trials.thisTrialN,trials.thisN,trials.thisIndex,trials.ran,participant,session,date,expName,psychopyVersion,OS,frameRate,study_id,viewerdistancecm,DVA_to_distance,radius_F,radius_P,r_F,R_P,key_resp_20.keys,key_resp_20.rt,key_resp_14.keys,key_resp_14.rt,key_resp_15.keys,key_resp_15.rt,key_resp_17.keys,key_resp_17.rt,key_resp_9.keys,key_resp_9.rt,key_resp_10.keys,key_resp_10.rt,Flower1,Ecc,Flower_2,similarity,response_time,mouse_5.x,mouse_5.y,mouse_5.leftButton,mouse_5.midButton,mouse_5.rightButton,mouse_5.clicked_name,mouse_10.x,mouse_10.y,mouse_10.leftButton,mouse_10.midButton,mouse_10.rightButton,mouse_10.clicked_name,mouse_7.x,mouse_7.y,mouse_7.leftButton,mouse_7.midButton,mouse_7.rightButton,catchnumberprac,mouse_6.x,mouse_6.y,mouse_6.leftButton,mouse_6.midButton,mouse_6.rightButton,duringprac.thisRepN,duringprac.thisTrialN,duringprac.thisN,duringprac.thisIndex,duringprac.ran,mouse_7.clicked_name,catchprac,mouse_6.clicked_name,key_resp_22.keys,key_resp_22.rt,mouse.x,mouse.y,mouse.leftButton,mouse.midButton,mouse.rightButton,mouse.clicked_name,Flower2,trialnumber,mouse_2.x,mouse_2.y,mouse_2.leftButton,mouse_2.midButton,mouse_2.rightButton,mouse_2.clicked_name,mouse_3.x,mouse_3.y,mouse_3.leftButton,mouse_3.midButton,mouse_3.rightButton,catchresponse,catchnumber,catchtrialorder,mouse_11.x,mouse_11.y,mouse_11.leftButton,mouse_11.midButton,mouse_11.rightButton,trials_2.thisRepN,trials_2.thisTrialN,trials_2.thisN,trials_2.thisIndex,trials_2.ran,mouse_3.clicked_name,mouse_11.clicked_name,trials_3.thisRepN,trials_3.thisTrialN,trials_3.thisN,trials_3.thisIndex,trials_3.ran,answer1,rt1,answer2,rt2,answer3,rt3,answer4,rt4,answer5,rt5,answer6,rt6,answer8,rt8,answer7,rt7
space,14.77963,space,3.75778,space,7.025645,37.4,3.74,513.368984,288.7700535,1920,space,25.562585,space,12.645295,74.8,space,13.727125,space,3.239725,space,0.889855,space,3.85119,space,6.6325,space,10.570935,space,9.216615,space,11.20388,space,13.771085,return,2.337475,233.28,595.5267165,0,0,0,0,1,5d7d0cc0e32539001a174642,5fe192c7df8451428fad09fd,2020-12-22_07h31.57.817,FlowerSimilarity_Experiment,2020.1.2,Win32,60,5fe17d4a51f3a9c1a60f9869,,,,,,,,,,,,,,,,,,,,,,,,,,,,,,,,,,,,,,,,,,,,,,,,,,,,,,,,,,,,,,,,,,,,,,,,,,,,,,,,,,,,,,,,,,,,,,,,,,,,,,,,,,,,,,,
,,,,,,,,,,,,,,,,,,,,,,,,,,,,,,,,,,return,2.32644,236.16,592.3192117,1,0,1,0,1,5d7d0cc0e32539001a174642,5fe192c7df8451428fad09fd,2020-12-22_07h31.57.817,FlowerSimilarity_Experiment,2020.1.2,Win32,60,5fe17d4a51f3a9c1a60f9869,,,,,,,,,,,,,,,,,,,,,,,,,,,,,,,,,,,,,,,,,,,,,,,,,,,,,,,,,,,,,,,,,,,,,,,,,,,,,,,,,,,,,,,,,,,,,,,,,,,,,,,,,,,,,,,
,,,,,,,,,,,,,,,,,,,,,,,,,,,,,,,,,,return,2.318655,239.04,589.111707,2,0,2,0,1,5d7d0cc0e32539001a174642,5fe192c7df8451428fad09fd,2020-12-22_07h31.57.817,FlowerSimilarity_Experiment,2020.1.2,Win32,60,5fe17d4a51f3a9c1a60f9869,,,,,,,,,,,,,,,,,,,,,,,,,,,,,,,,,,,,,,,,,,,,,,,,,,,,,,,,,,,,,,,,,,,,,,,,,,,,,,,,,,,,,,,,,,,,,,,,,,,,,,,,,,,,,,,
,,,,,,,,,,,,,,,,,,,,,,,,,,,,,,,,,,return,2.28405,244.8,582.6966975,3,0,3,0,1,5d7d0cc0e32539001a174642,5fe192c7df8451428fad09fd,2020-12-22_07h31.57.817,FlowerSimilarity_Experiment,2020.1.2,Win32,60,5fe17d4a51f3a9c1a60f9869,,,,,,,,,,,,,,,,,,,,,,,,,,,,,,,,,,,,,,,,,,,,,,,,,,,,,,,,,,,,,,,,,,,,,,,,,,,,,,,,,,,,,,,,,,,,,,,,,,,,,,,,,,,,,,,
,,,,,,,,,,,,,,,,,,,,,,,,,,,,,,,,,,return,2.2546,250.56,576.281688,4,0,4,0,1,5d7d0cc0e32539001a174642,5fe192c7df8451428fad09fd,2020-12-22_07h31.57.817,FlowerSimilarity_Experiment,2020.1.2,Win32,60,5fe17d4a51f3a9c1a60f9869,,,,,,,,,,,,,,,,,,,,,,,,,,,,,,,,,,,,,,,,,,,,,,,,,,,,,,,,,,,,,,,,,,,,,,,,,,,,,,,,,,,,,,,,,,,,,,,,,,,,,,,,,,,,,,,
,,,,,,,,,,,,,,,,,,,,,,,,,,,,,,,,,,,,,,,,,,,5d7d0cc0e32539001a174642,5fe192c7df8451428fad09fd,2020-12-22_07h31.57.817,FlowerSimilarity_Experiment,2020.1.2,Win32,60,5fe17d4a51f3a9c1a60f9869,59,10.29848462,57.77449874,385.163325,38.5163325,173.3234962,space,5.339545,space,9.148775,space,18.294445,space,4.36042,space,4.422415,space,4.44938,2,FF,7,3,7.31906,-64,-118,1,0,0,response5disk_5,1,6,1,0,0,rectangle_8,1,6,1,0,0,7,1,6,1,0,0,0,0,0,0,1,,,,,,,,,,,,,,,,,,,,,,,,,,,,,,,,,,,,,,,,,,,,,,,,,,,,,,,,,,,,
,,,,,,,,,,,,,,,,,,,,,,,,,,,,,,,,,,,,,,,,,,,5d7d0cc0e32539001a174642,5fe192c7df8451428fad09fd,2020-12-22_07h31.57.817,FlowerSimilarity_Experiment,2020.1.2,Win32,60,5fe17d4a51f3a9c1a60f9869,,,,,,,,,,,,,,,,,,,4,FF,4,7,2.217825,56,131,1,0,0,response1disk_5,-7,3,1,0,0,rectangle_8,-7,3,1,0,0,7,-7,3,1,0,0,0,1,1,5,1,,,,,,,,,,,,,,,,,,,,,,,,,,,,,,,,,,,,,,,,,,,,,,,,,,,,,,,,,,,,
,,,,,,,,,,,,,,,,,,,,,,,,,,,,,,,,,,,,,,,,,,,5d7d0cc0e32539001a174642,5fe192c7df8451428fad09fd,2020-12-22_07h31.57.817,FlowerSimilarity_Experiment,2020.1.2,Win32,60,5fe17d4a51f3a9c1a60f9869,,,,,,,,,,,,,,,,,,,5,PF,6,3,3.254765,-52,-93,1,0,0,response5disk_5,-17,-8,1,0,0,rectangle_8,60,131,1,0,0,7,6,-19,1,0,0,0,2,2,4,1,response1disk_7,7,rectangle_4,,,,,,,,,,,,,,,,,,,,,,,,,,,,,,,,,,,,,,,,,,,,,,,,,,,,,,,,,
,,,,,,,,,,,,,,,,,,,,,,,,,,,,,,,,,,,,,,,,,,,5d7d0cc0e32539001a174642,5fe192c7df8451428fad09fd,2020-12-22_07h31.57.817,FlowerSimilarity_Experiment,2020.1.2,Win32,60,5fe17d4a51f3a9c1a60f9869,,,,,,,,,,,,,,,,,,,7,PF,6,0,1.537015,-63,102,1,0,0,response7disk_5,11,5,1,0,0,rectangle_8,11,5,1,0,0,7,11,5,1,0,0,0,3,3,1,1,,,,,,,,,,,,,,,,,,,,,,,,,,,,,,,,,,,,,,,,,,,,,,,,,,,,,,,,,,,,
,,,,,,,,,,,,,,,,,,,,,,,,,,,,,,,,,,,,,,,,,,,5d7d0cc0e32539001a174642,5fe192c7df8451428fad09fd,2020-12-22_07h31.57.817,FlowerSimilarity_Experiment,2020.1.2,Win32,60,5fe17d4a51f3a9c1a60f9869,,,,,,,,,,,,,,,,,,,8,PF,7,2,3.939595,-122,-52,1,0,0,response5disk_5,-7,5,1,0,0,rectangle_8,53,130,1,0,0,7,-1,0,1,0,0,0,4,4,2,1,response1disk_7,7,rectangle_4,,,,,,,,,,,,,,,,,,,,,,,,,,,,,,,,,,,,,,,,,,,,,,,,,,,,,,,,,
,,,,,,,,,,,,,,,,,,,,,,,,,,,,,,,,,,,,,,,,,,,5d7d0cc0e32539001a174642,5fe192c7df8451428fad09fd,2020-12-22_07h31.57.817,FlowerSimilarity_Experiment,2020.1.2,Win32,60,5fe17d4a51f3a9c1a60f9869,,,,,,,,,,,,,,,,,,,7,FF,4,4,2.136635,29,-80,1,0,0,response3disk_5,-14,13,1,0,0,rectangle_8,-14,13,1,0,0,7,-14,13,1,0,0,0,5,5,3,1,,,,,,,,,,,,,,,,,,,,,,,,,,,,,,,,,,,,,,,,,,,,,,,,,,,,,,,,,,,,
,,,,,,,,,,,,,,,,,,,,,,,,,,,,,,,,,,,,,,,,,,,5d7d0cc0e32539001a174642,5fe192c7df8451428fad09fd,2020-12-22_07h31.57.817,FlowerSimilarity_Experiment,2020.1.2,Win32,60,5fe17d4a51f3a9c1a60f9869,,,,,,,,,,,,,,,,,,,1,PF,9,5,1.326405,104,-55,1,0,0,response3disk_5,-14,6,1,0,0,rectangle_8,-14,6,1,0,0,7,-14,6,1,0,0,0,6,6,6,1,,,,,,,,,,,,,,,,,,,,,,,,,,,,,,,,,,,,,,,,,,,,,,,,,,,,,,,,,,,,
,,,,,,,,,,,,,,,,,,,,,,,,,,,,,,,,,,,,,,,,,,,5d7d0cc0e32539001a174642,5fe192c7df8451428fad09fd,2020-12-22_07h31.57.817,FlowerSimilarity_Experiment,2020.1.2,Win32,60,5fe17d4a51f3a9c1a60f9869,,,,,,,,,,,,,,,,,,,8,PF,,6,2.110405,,,,,,,,,,,,,,,,,,,,,,,,,,,,,,,,space,3.97336,137,85,1,0,0,response1disk,5,1,10,-8,1,0,0,rectangle,10,-8,1,0,0,,2,"[312,215,121,119,109,61,81,143,192,35,154,187,257,158,183,169,277,226,284,237]",10,-8,1,0,0,0,0,0,98,1,,,,,,,,,,,,,,,,,,,,,,,
,,,,,,,,,,,,,,,,,,,,,,,,,,,,,,,,,,,,,,,,,,,5d7d0cc0e32539001a174642,5fe192c7df8451428fad09fd,2020-12-22_07h31.57.817,FlowerSimilarity_Experiment,2020.1.2,Win32,60,5fe17d4a51f3a9c1a60f9869,,,,,,,,,,,,,,,,,,,5,PF,,1,1.98426,,,,,,,,,,,,,,,,,,,,,,,,,,,,,,,,,,-71,45,1,0,0,response7disk,1,2,7,19,1,0,0,rectangle,7,19,1,0,0,,0,"[312,215,121,119,109,61,81,143,192,35,154,187,257,158,183,169,277,226,284,237]",7,19,1,0,0,0,1,1,159,1,,,,,,,,,,,,,,,,,,,,,,,
,,,,,,,,,,,,,,,,,,,,,,,,,,,,,,,,,,,,,,,,,,,5d7d0cc0e32539001a174642,5fe192c7df8451428fad09fd,2020-12-22_07h31.57.817,FlowerSimilarity_Experiment,2020.1.2,Win32,60,5fe17d4a51f3a9c1a60f9869,,,,,,,,,,,,,,,,,,,2,PF,,2,1.21496,,,,,,,,,,,,,,,,,,,,,,,,,,,,,,,,,,-58,-39,1,0,0,response5disk,7,3,-16,-2,1,0,0,rectangle,-16,-2,1,0,0,,5,"[312,215,121,119,109,61,81,143,192,35,154,187,257,158,183,169,277,226,284,237]",-16,-2,1,0,0,0,2,2,107,1,,,,,,,,,,,,,,,,,,,,,,,
,,,,,,,,,,,,,,,,,,,,,,,,,,,,,,,,,,,,,,,,,,,5d7d0cc0e32539001a174642,5fe192c7df8451428fad09fd,2020-12-22_07h31.57.817,FlowerSimilarity_Experiment,2020.1.2,Win32,60,5fe17d4a51f3a9c1a60f9869,,,,,,,,,,,,,,,,,,,6,PF,,7,1.16778,,,,,,,,,,,,,,,,,,,,,,,,,,,,,,,,,,70,113,1,0,0,response1disk,6,4,-13,-3,1,0,0,rectangle,-13,-3,1,0,0,,4,"[312,215,121,119,109,61,81,143,192,35,154,187,257,158,183,169,277,226,284,237]",-13,-3,1,0,0,0,3,3,0,1,,,,,,,,,,,,,,,,,,,,,,,
,,,,,,,,,,,,,,,,,,,,,,,,,,,,,,,,,,,,,,,,,,,5d7d0cc0e32539001a174642,5fe192c7df8451428fad09fd,2020-12-22_07h31.57.817,FlowerSimilarity_Experiment,2020.1.2,Win32,60,5fe17d4a51f3a9c1a60f9869,,,,,,,,,,,,,,,,,,,5,FF,,0,2.92017,,,,,,,,,,,,,,,,,,,,,,,,,,,,,,,,,,-57,88,1,0,0,response7disk,9,5,-24,2,1,0,0,rectangle,-24,2,1,0,0,,2,"[312,215,121,119,109,61,81,143,192,35,154,187,257,158,183,169,277,226,284,237]",-24,2,1,0,0,0,4,4,61,1,,,,,,,,,,,,,,,,,,,,,,,
,,,,,,,,,,,,,,,,,,,,,,,,,,,,,,,,,,,,,,,,,,,5d7d0cc0e32539001a174642,5fe192c7df8451428fad09fd,2020-12-22_07h31.57.817,FlowerSimilarity_Experiment,2020.1.2,Win32,60,5fe17d4a51f3a9c1a60f9869,,,,,,,,,,,,,,,,,,,5,FF,,6,1.46023,,,,,,,,,,,,,,,,,,,,,,,,,,,,,,,,,,75,53,1,0,0,response1disk,8,6,-3,-9,1,0,0,rectangle,-3,-9,1,0,0,,1,"[312,215,121,119,109,61,81,143,192,35,154,187,257,158,183,169,277,226,284,237]",-3,-9,1,0,0,0,5,5,16,1,,,,,,,,,,,,,,,,,,,,,,,
,,,,,,,,,,,,,,,,,,,,,,,,,,,,,,,,,,,,,,,,,,,5d7d0cc0e32539001a174642,5fe192c7df8451428fad09fd,2020-12-22_07h31.57.817,FlowerSimilarity_Experiment,2020.1.2,Win32,60,5fe17d4a51f3a9c1a60f9869,,,,,,,,,,,,,,,,,,,1,FF,,4,1.2934,,,,,,,,,,,,,,,,,,,,,,,,,,,,,,,,,,34,-64,1,0,0,response3disk,6,7,11,-15,1,0,0,rectangle,11,-15,1,0,0,,1,"[312,215,121,119,109,61,81,143,192,35,154,187,257,158,183,169,277,226,284,237]",11,-15,1,0,0,0,6,6,58,1,,,,,,,,,,,,,,,,,,,,,,,
,,,,,,,,,,,,,,,,,,,,,,,,,,,,,,,,,,,,,,,,,,,5d7d0cc0e32539001a174642,5fe192c7df8451428fad09fd,2020-12-22_07h31.57.817,FlowerSimilarity_Experiment,2020.1.2,Win32,60,5fe17d4a51f3a9c1a60f9869,,,,,,,,,,,,,,,,,,,4,PF,,1,2.37815,,,,,,,,,,,,,,,,,,,,,,,,,,,,,,,,,,-87,47,1,0,0,response7disk,1,8,-12,-5,1,0,0,rectangle,-12,-5,1,0,0,,0,"[312,215,121,119,109,61,81,143,192,35,154,187,257,158,183,169,277,226,284,237]",-12,-5,1,0,0,0,7,7,115,1,,,,,,,,,,,,,,,,,,,,,,,
,,,,,,,,,,,,,,,,,,,,,,,,,,,,,,,,,,,,,,,,,,,5d7d0cc0e32539001a174642,5fe192c7df8451428fad09fd,2020-12-22_07h31.57.817,FlowerSimilarity_Experiment,2020.1.2,Win32,60,5fe17d4a51f3a9c1a60f9869,,,,,,,,,,,,,,,,,,,1,FF,,0,1.362905,,,,,,,,,,,,,,,,,,,,,,,,,,,,,,,,,,-42,79,1,0,0,response7disk,7,9,-15,-1,1,0,0,rectangle,-15,-1,1,0,0,,3,"[312,215,121,119,109,61,81,143,192,35,154,187,257,158,183,169,277,226,284,237]",-15,-1,1,0,0,0,8,8,137,1,,,,,,,,,,,,,,,,,,,,,,,
,,,,,,,,,,,,,,,,,,,,,,,,,,,,,,,,,,,,,,,,,,,5d7d0cc0e32539001a174642,5fe192c7df8451428fad09fd,2020-12-22_07h31.57.817,FlowerSimilarity_Experiment,2020.1.2,Win32,60,5fe17d4a51f3a9c1a60f9869,,,,,,,,,,,,,,,,,,,7,PF,,0,0.778935,,,,,,,,,,,,,,,,,,,,,,,,,,,,,,,,,,-34,107,1,0,0,response7disk,1,10,-11,6,1,0,0,rectangle,-11,6,1,0,0,,3,"[312,215,121,119,109,61,81,143,192,35,154,187,257,158,183,169,277,226,284,237]",-11,6,1,0,0,0,9,9,53,1,,,,,,,,,,,,,,,,,,,,,,,
,,,,,,,,,,,,,,,,,,,,,,,,,,,,,,,,,,,,,,,,,,,5d7d0cc0e32539001a174642,5fe192c7df8451428fad09fd,2020-12-22_07h31.57.817,FlowerSimilarity_Experiment,2020.1.2,Win32,60,5fe17d4a51f3a9c1a60f9869,,,,,,,,,,,,,,,,,,,5,PF,,1,1.279615,,,,,,,,,,,,,,,,,,,,,,,,,,,,,,,,,,-67,32,1,0,0,response7disk,6,11,-8,5,1,0,0,rectangle,-8,5,1,0,0,,1,"[312,215,121,119,109,61,81,143,192,35,154,187,257,158,183,169,277,226,284,237]",-8,5,1,0,0,0,10,10,103,1,,,,,,,,,,,,,,,,,,,,,,,
,,,,,,,,,,,,,,,,,,,,,,,,,,,,,,,,,,,,,,,,,,,5d7d0cc0e32539001a174642,5fe192c7df8451428fad09fd,2020-12-22_07h31.57.817,FlowerSimilarity_Experiment,2020.1.2,Win32,60,5fe17d4a51f3a9c1a60f9869,,,,,,,,,,,,,,,,,,,1,PF,,4,1.418745,,,,,,,,,,,,,,,,,,,,,,,,,,,,,,,,,,48,-68,1,0,0,response3disk,9,12,-8,-8,1,0,0,rectangle,-8,-8,1,0,0,,0,"[312,215,121,119,109,61,81,143,192,35,154,187,257,158,183,169,277,226,284,237]",-8,-8,1,0,0,0,11,11,15,1,,,,,,,,,,,,,,,,,,,,,,,
,,,,,,,,,,,,,,,,,,,,,,,,,,,,,,,,,,,,,,,,,,,5d7d0cc0e32539001a174642,5fe192c7df8451428fad09fd,2020-12-22_07h31.57.817,FlowerSimilarity_Experiment,2020.1.2,Win32,60,5fe17d4a51f3a9c1a60f9869,,,,,,,,,,,,,,,,,,,4,FF,,0,0.91825,,,,,,,,,,,,,,,,,,,,,,,,,,,,,,,,,,-30,107,1,0,0,response7disk,6,13,8,-6,1,0,0,rectangle,8,-6,1,0,0,,3,"[312,215,121,119,109,61,81,143,192,35,154,187,257,158,183,169,277,226,284,237]",8,-6,1,0,0,0,12,12,122,1,,,,,,,,,,,,,,,,,,,,,,,
,,,,,,,,,,,,,,,,,,,,,,,,,,,,,,,,,,,,,,,,,,,5d7d0cc0e32539001a174642,5fe192c7df8451428fad09fd,2020-12-22_07h31.57.817,FlowerSimilarity_Experiment,2020.1.2,Win32,60,5fe17d4a51f3a9c1a60f9869,,,,,,,,,,,,,,,,,,,6,FF,,0,0.751155,,,,,,,,,,,,,,,,,,,,,,,,,,,,,,,,,,-43,94,1,0,0,response7disk,4,14,-4,-3,1,0,0,rectangle,-4,-3,1,0,0,,3,"[312,215,121,119,109,61,81,143,192,35,154,187,257,158,183,169,277,226,284,237]",-4,-3,1,0,0,0,13,13,56,1,,,,,,,,,,,,,,,,,,,,,,,
,,,,,,,,,,,,,,,,,,,,,,,,,,,,,,,,,,,,,,,,,,,5d7d0cc0e32539001a174642,5fe192c7df8451428fad09fd,2020-12-22_07h31.57.817,FlowerSimilarity_Experiment,2020.1.2,Win32,60,5fe17d4a51f3a9c1a60f9869,,,,,,,,,,,,,,,,,,,8,FF,,0,0.792825,,,,,,,,,,,,,,,,,,,,,,,,,,,,,,,,,,-27,80,1,0,0,response7disk,9,15,2,-3,1,0,0,rectangle,2,-3,1,0,0,,2,"[312,215,121,119,109,61,81,143,192,35,154,187,257,158,183,169,277,226,284,237]",2,-3,1,0,0,0,14,14,105,1,,,,,,,,,,,,,,,,,,,,,,,
,,,,,,,,,,,,,,,,,,,,,,,,,,,,,,,,,,,,,,,,,,,5d7d0cc0e32539001a174642,5fe192c7df8451428fad09fd,2020-12-22_07h31.57.817,FlowerSimilarity_Experiment,2020.1.2,Win32,60,5fe17d4a51f3a9c1a60f9869,,,,,,,,,,,,,,,,,,,7,PF,,0,1.015705,,,,,,,,,,,,,,,,,,,,,,,,,,,,,,,,,,-38,75,1,0,0,response7disk,9,16,-3,2,1,0,0,rectangle,-3,2,1,0,0,,4,"[312,215,121,119,109,61,81,143,192,35,154,187,257,158,183,169,277,226,284,237]",-3,2,1,0,0,0,15,15,10,1,,,,,,,,,,,,,,,,,,,,,,,
,,,,,,,,,,,,,,,,,,,,,,,,,,,,,,,,,,,,,,,,,,,5d7d0cc0e32539001a174642,5fe192c7df8451428fad09fd,2020-12-22_07h31.57.817,FlowerSimilarity_Experiment,2020.1.2,Win32,60,5fe17d4a51f3a9c1a60f9869,,,,,,,,,,,,,,,,,,,4,PF,,0,0.848425,,,,,,,,,,,,,,,,,,,,,,,,,,,,,,,,,,-34,87,1,0,0,response7disk,5,17,-4,6,1,0,0,rectangle,-4,6,1,0,0,,1,"[312,215,121,119,109,61,81,143,192,35,154,187,257,158,183,169,277,226,284,237]",-4,6,1,0,0,0,16,16,49,1,,,,,,,,,,,,,,,,,,,,,,,
,,,,,,,,,,,,,,,,,,,,,,,,,,,,,,,,,,,,,,,,,,,5d7d0cc0e32539001a174642,5fe192c7df8451428fad09fd,2020-12-22_07h31.57.817,FlowerSimilarity_Experiment,2020.1.2,Win32,60,5fe17d4a51f3a9c1a60f9869,,,,,,,,,,,,,,,,,,,4,PF,,1,1.307365,,,,,,,,,,,,,,,,,,,,,,,,,,,,,,,,,,-68,22,1,0,0,response7disk,9,18,-20,-3,1,0,0,rectangle,-20,-3,1,0,0,,4,"[312,215,121,119,109,61,81,143,192,35,154,187,257,158,183,169,277,226,284,237]",-20,-3,1,0,0,0,17,17,75,1,,,,,,,,,,,,,,,,,,,,,,,
,,,,,,,,,,,,,,,,,,,,,,,,,,,,,,,,,,,,,,,,,,,5d7d0cc0e32539001a174642,5fe192c7df8451428fad09fd,2020-12-22_07h31.57.817,FlowerSimilarity_Experiment,2020.1.2,Win32,60,5fe17d4a51f3a9c1a60f9869,,,,,,,,,,,,,,,,,,,6,PF,,0,0.862285,,,,,,,,,,,,,,,,,,,,,,,,,,,,,,,,,,-44,92,1,0,0,response7disk,8,19,-7,1,1,0,0,rectangle,-7,1,1,0,0,,7,"[312,215,121,119,109,61,81,143,192,35,154,187,257,158,183,169,277,226,284,237]",-7,1,1,0,0,0,18,18,64,1,,,,,,,,,,,,,,,,,,,,,,,
,,,,,,,,,,,,,,,,,,,,,,,,,,,,,,,,,,,,,,,,,,,5d7d0cc0e32539001a174642,5fe192c7df8451428fad09fd,2020-12-22_07h31.57.817,FlowerSimilarity_Experiment,2020.1.2,Win32,60,5fe17d4a51f3a9c1a60f9869,,,,,,,,,,,,,,,,,,,2,FF,,0,0.62596,,,,,,,,,,,,,,,,,,,,,,,,,,,,,,,,,,-43,101,1,0,0,response7disk,8,20,-22,2,1,0,0,rectangle,-22,2,1,0,0,,0,"[312,215,121,119,109,61,81,143,192,35,154,187,257,158,183,169,277,226,284,237]",-22,2,1,0,0,0,19,19,62,1,,,,,,,,,,,,,,,,,,,,,,,
,,,,,,,,,,,,,,,,,,,,,,,,,,,,,,,,,,,,,,,,,,,5d7d0cc0e32539001a174642,5fe192c7df8451428fad09fd,2020-12-22_07h31.57.817,FlowerSimilarity_Experiment,2020.1.2,Win32,60,5fe17d4a51f3a9c1a60f9869,,,,,,,,,,,,,,,,,,,4,PF,,6,1.62714,,,,,,,,,,,,,,,,,,,,,,,,,,,,,,,,,,86,38,1,0,0,response1disk,4,21,1,-13,1,0,0,rectangle,1,-13,1,0,0,,0,"[312,215,121,119,109,61,81,143,192,35,154,187,257,158,183,169,277,226,284,237]",1,-13,1,0,0,0,20,20,70,1,,,,,,,,,,,,,,,,,,,,,,,
,,,,,,,,,,,,,,,,,,,,,,,,,,,,,,,,,,,,,,,,,,,5d7d0cc0e32539001a174642,5fe192c7df8451428fad09fd,2020-12-22_07h31.57.817,FlowerSimilarity_Experiment,2020.1.2,Win32,60,5fe17d4a51f3a9c1a60f9869,,,,,,,,,,,,,,,,,,,6,FF,,1,1.029145,,,,,,,,,,,,,,,,,,,,,,,,,,,,,,,,,,-78,29,1,0,0,response7disk,8,22,-16,-8,1,0,0,rectangle,-16,-8,1,0,0,,0,"[312,215,121,119,109,61,81,143,192,35,154,187,257,158,183,169,277,226,284,237]",-16,-8,1,0,0,0,21,21,133,1,,,,,,,,,,,,,,,,,,,,,,,
,,,,,,,,,,,,,,,,,,,,,,,,,,,,,,,,,,,,,,,,,,,5d7d0cc0e32539001a174642,5fe192c7df8451428fad09fd,2020-12-22_07h31.57.817,FlowerSimilarity_Experiment,2020.1.2,Win32,60,5fe17d4a51f3a9c1a60f9869,,,,,,,,,,,,,,,,,,,8,FF,,0,0.710065,,,,,,,,,,,,,,,,,,,,,,,,,,,,,,,,,,-36,99,1,0,0,response7disk,4,23,-6,-2,1,0,0,rectangle,-6,-2,1,0,0,,5,"[312,215,121,119,109,61,81,143,192,35,154,187,257,158,183,169,277,226,284,237]",-6,-2,1,0,0,0,22,22,88,1,,,,,,,,,,,,,,,,,,,,,,,
,,,,,,,,,,,,,,,,,,,,,,,,,,,,,,,,,,,,,,,,,,,5d7d0cc0e32539001a174642,5fe192c7df8451428fad09fd,2020-12-22_07h31.57.817,FlowerSimilarity_Experiment,2020.1.2,Win32,60,5fe17d4a51f3a9c1a60f9869,,,,,,,,,,,,,,,,,,,6,PF,,6,1.00136,,,,,,,,,,,,,,,,,,,,,,,,,,,,,,,,,,81,40,1,0,0,response1disk,1,24,5,-3,1,0,0,rectangle,5,-3,1,0,0,,7,"[312,215,121,119,109,61,81,143,192,35,154,187,257,158,183,169,277,226,284,237]",5,-3,1,0,0,0,23,23,46,1,,,,,,,,,,,,,,,,,,,,,,,
,,,,,,,,,,,,,,,,,,,,,,,,,,,,,,,,,,,,,,,,,,,5d7d0cc0e32539001a174642,5fe192c7df8451428fad09fd,2020-12-22_07h31.57.817,FlowerSimilarity_Experiment,2020.1.2,Win32,60,5fe17d4a51f3a9c1a60f9869,,,,,,,,,,,,,,,,,,,2,PF,,0,0.834475,,,,,,,,,,,,,,,,,,,,,,,,,,,,,,,,,,-27,93,1,0,0,response7disk,9,25,3,3,1,0,0,rectangle,3,3,1,0,0,,4,"[312,215,121,119,109,61,81,143,192,35,154,187,257,158,183,169,277,226,284,237]",3,3,1,0,0,0,24,24,39,1,,,,,,,,,,,,,,,,,,,,,,,
,,,,,,,,,,,,,,,,,,,,,,,,,,,,,,,,,,,,,,,,,,,5d7d0cc0e32539001a174642,5fe192c7df8451428fad09fd,2020-12-22_07h31.57.817,FlowerSimilarity_Experiment,2020.1.2,Win32,60,5fe17d4a51f3a9c1a60f9869,,,,,,,,,,,,,,,,,,,1,PF,,0,0.820745,,,,,,,,,,,,,,,,,,,,,,,,,,,,,,,,,,-47,105,1,0,0,response7disk,3,26,4,5,1,0,0,rectangle,4,5,1,0,0,,7,"[312,215,121,119,109,61,81,143,192,35,154,187,257,158,183,169,277,226,284,237]",4,5,1,0,0,0,25,25,1,1,,,,,,,,,,,,,,,,,,,,,,,
,,,,,,,,,,,,,,,,,,,,,,,,,,,,,,,,,,,,,,,,,,,5d7d0cc0e32539001a174642,5fe192c7df8451428fad09fd,2020-12-22_07h31.57.817,FlowerSimilarity_Experiment,2020.1.2,Win32,60,5fe17d4a51f3a9c1a60f9869,,,,,,,,,,,,,,,,,,,2,PF,,0,0.76504,,,,,,,,,,,,,,,,,,,,,,,,,,,,,,,,,,-35,100,1,0,0,response7disk,6,27,3,9,1,0,0,rectangle,3,9,1,0,0,,0,"[312,215,121,119,109,61,81,143,192,35,154,187,257,158,183,169,277,226,284,237]",3,9,1,0,0,0,26,26,113,1,,,,,,,,,,,,,,,,,,,,,,,
,,,,,,,,,,,,,,,,,,,,,,,,,,,,,,,,,,,,,,,,,,,5d7d0cc0e32539001a174642,5fe192c7df8451428fad09fd,2020-12-22_07h31.57.817,FlowerSimilarity_Experiment,2020.1.2,Win32,60,5fe17d4a51f3a9c1a60f9869,,,,,,,,,,,,,,,,,,,4,FF,,2,1.97481,,,,,,,,,,,,,,,,,,,,,,,,,,,,,,,,,,-92,-31,1,0,0,response5disk,5,28,-22,-8,1,0,0,rectangle,-22,-8,1,0,0,,7,"[312,215,121,119,109,61,81,143,192,35,154,187,257,158,183,169,277,226,284,237]",-22,-8,1,0,0,0,27,27,116,1,,,,,,,,,,,,,,,,,,,,,,,
,,,,,,,,,,,,,,,,,,,,,,,,,,,,,,,,,,,,,,,,,,,5d7d0cc0e32539001a174642,5fe192c7df8451428fad09fd,2020-12-22_07h31.57.817,FlowerSimilarity_Experiment,2020.1.2,Win32,60,5fe17d4a51f3a9c1a60f9869,,,,,,,,,,,,,,,,,,,3,FF,,7,0.917895,,,,,,,,,,,,,,,,,,,,,,,,,,,,,,,,,,46,120,1,0,0,response1disk,3,29,-8,5,1,0,0,rectangle,-8,5,1,0,0,,7,"[312,215,121,119,109,61,81,143,192,35,154,187,257,158,183,169,277,226,284,237]",-8,5,1,0,0,0,28,28,68,1,,,,,,,,,,,,,,,,,,,,,,,
,,,,,,,,,,,,,,,,,,,,,,,,,,,,,,,,,,,,,,,,,,,5d7d0cc0e32539001a174642,5fe192c7df8451428fad09fd,2020-12-22_07h31.57.817,FlowerSimilarity_Experiment,2020.1.2,Win32,60,5fe17d4a51f3a9c1a60f9869,,,,,,,,,,,,,,,,,,,7,FF,,6,1.53103,,,,,,,,,,,,,,,,,,,,,,,,,,,,,,,,,,66,38,1,0,0,response1disk,4,30,-7,-9,1,0,0,rectangle,-7,-9,1,0,0,,4,"[312,215,121,119,109,61,81,143,192,35,154,187,257,158,183,169,277,226,284,237]",-7,-9,1,0,0,0,29,29,158,1,,,,,,,,,,,,,,,,,,,,,,,
,,,,,,,,,,,,,,,,,,,,,,,,,,,,,,,,,,,,,,,,,,,5d7d0cc0e32539001a174642,5fe192c7df8451428fad09fd,2020-12-22_07h31.57.817,FlowerSimilarity_Experiment,2020.1.2,Win32,60,5fe17d4a51f3a9c1a60f9869,,,,,,,,,,,,,,,,,,,1,PF,,0,1.11358,,,,,,,,,,,,,,,,,,,,,,,,,,,,,,,,,,-36,61,1,0,0,response7disk,4,31,-11,-12,1,0,0,rectangle,-11,-12,1,0,0,,3,"[312,215,121,119,109,61,81,143,192,35,154,187,257,158,183,169,277,226,284,237]",-11,-12,1,0,0,0,30,30,139,1,,,,,,,,,,,,,,,,,,,,,,,
,,,,,,,,,,,,,,,,,,,,,,,,,,,,,,,,,,,,,,,,,,,5d7d0cc0e32539001a174642,5fe192c7df8451428fad09fd,2020-12-22_07h31.57.817,FlowerSimilarity_Experiment,2020.1.2,Win32,60,5fe17d4a51f3a9c1a60f9869,,,,,,,,,,,,,,,,,,,5,FF,,2,1.00236,,,,,,,,,,,,,,,,,,,,,,,,,,,,,,,,,,-68,-39,1,0,0,response5disk,7,32,0,-7,1,0,0,rectangle,0,-7,1,0,0,,7,"[312,215,121,119,109,61,81,143,192,35,154,187,257,158,183,169,277,226,284,237]",0,-7,1,0,0,0,31,31,7,1,,,,,,,,,,,,,,,,,,,,,,,
,,,,,,,,,,,,,,,,,,,,,,,,,,,,,,,,,,,,,,,,,,,5d7d0cc0e32539001a174642,5fe192c7df8451428fad09fd,2020-12-22_07h31.57.817,FlowerSimilarity_Experiment,2020.1.2,Win32,60,5fe17d4a51f3a9c1a60f9869,,,,,,,,,,,,,,,,,,,6,PF,,1,1.16927,,,,,,,,,,,,,,,,,,,,,,,,,,,,,,,,,,-69,51,1,0,0,response7disk,2,33,3,4,1,0,0,rectangle,3,4,1,0,0,,3,"[312,215,121,119,109,61,81,143,192,35,154,187,257,158,183,169,277,226,284,237]",3,4,1,0,0,0,32,32,130,1,,,,,,,,,,,,,,,,,,,,,,,
,,,,,,,,,,,,,,,,,,,,,,,,,,,,,,,,,,,,,,,,,,,5d7d0cc0e32539001a174642,5fe192c7df8451428fad09fd,2020-12-22_07h31.57.817,FlowerSimilarity_Experiment,2020.1.2,Win32,60,5fe17d4a51f3a9c1a60f9869,,,,,,,,,,,,,,,,,,,1,PF,,0,0.62706,,,,,,,,,,,,,,,,,,,,,,,,,,,,,,,,,,-44,83,1,0,0,response7disk,2,34,-3,-3,1,0,0,rectangle,-3,-3,1,0,0,,5,"[312,215,121,119,109,61,81,143,192,35,154,187,257,158,183,169,277,226,284,237]",-3,-3,1,0,0,0,33,33,24,1,,,,,,,,,,,,,,,,,,,,,,,
,,,,,,,,,,,,,,,,,,,,,,,,,,,,,,,,,,,,,,,,,,,5d7d0cc0e32539001a174642,5fe192c7df8451428fad09fd,2020-12-22_07h31.57.817,FlowerSimilarity_Experiment,2020.1.2,Win32,60,5fe17d4a51f3a9c1a60f9869,,,,,,,,,,,,,,,,,,,1,FF,,5,1.030705,,,,,,,,,,,,,,,,,,,,,,,,,,,,,,,,,,71,-47,1,0,0,response3disk,9,35,21,-9,1,0,0,rectangle,-46,-83,1,0,0,3,3,"[312,215,121,119,109,61,81,143,192,35,154,187,257,158,183,169,277,226,284,237]",3,-2,1,0,0,0,34,34,123,1,response5disk_3,rectangle,,,,,,,,,,,,,,,,,,,,,
,,,,,,,,,,,,,,,,,,,,,,,,,,,,,,,,,,,,,,,,,,,5d7d0cc0e32539001a174642,5fe192c7df8451428fad09fd,2020-12-22_07h31.57.817,FlowerSimilarity_Experiment,2020.1.2,Win32,60,5fe17d4a51f3a9c1a60f9869,,,,,,,,,,,,,,,,,,,1,FF,,0,1.04051,,,,,,,,,,,,,,,,,,,,,,,,,,,,,,,,,,-50,89,1,0,0,response7disk,8,36,-24,10,1,0,0,rectangle,-24,10,1,0,0,3,5,"[312,215,121,119,109,61,81,143,192,35,154,187,257,158,183,169,277,226,284,237]",-24,10,1,0,0,0,35,35,27,1,,,,,,,,,,,,,,,,,,,,,,,
,,,,,,,,,,,,,,,,,,,,,,,,,,,,,,,,,,,,,,,,,,,5d7d0cc0e32539001a174642,5fe192c7df8451428fad09fd,2020-12-22_07h31.57.817,FlowerSimilarity_Experiment,2020.1.2,Win32,60,5fe17d4a51f3a9c1a60f9869,,,,,,,,,,,,,,,,,,,6,PF,,0,0.877115,,,,,,,,,,,,,,,,,,,,,,,,,,,,,,,,,,-44,73,1,0,0,response7disk,4,37,-3,0,1,0,0,rectangle,-3,0,1,0,0,3,4,"[312,215,121,119,109,61,81,143,192,35,154,187,257,158,183,169,277,226,284,237]",-3,0,1,0,0,0,36,36,33,1,,,,,,,,,,,,,,,,,,,,,,,
,,,,,,,,,,,,,,,,,,,,,,,,,,,,,,,,,,,,,,,,,,,5d7d0cc0e32539001a174642,5fe192c7df8451428fad09fd,2020-12-22_07h31.57.817,FlowerSimilarity_Experiment,2020.1.2,Win32,60,5fe17d4a51f3a9c1a60f9869,,,,,,,,,,,,,,,,,,,8,FF,,2,1.391615,,,,,,,,,,,,,,,,,,,,,,,,,,,,,,,,,,-78,-38,1,0,0,response5disk,2,38,7,-10,1,0,0,rectangle,7,-10,1,0,0,3,6,"[312,215,121,119,109,61,81,143,192,35,154,187,257,158,183,169,277,226,284,237]",7,-10,1,0,0,0,37,37,22,1,,,,,,,,,,,,,,,,,,,,,,,
,,,,,,,,,,,,,,,,,,,,,,,,,,,,,,,,,,,,,,,,,,,5d7d0cc0e32539001a174642,5fe192c7df8451428fad09fd,2020-12-22_07h31.57.817,FlowerSimilarity_Experiment,2020.1.2,Win32,60,5fe17d4a51f3a9c1a60f9869,,,,,,,,,,,,,,,,,,,9,FF,,0,0.93258,,,,,,,,,,,,,,,,,,,,,,,,,,,,,,,,,,-31,66,1,0,0,response7disk,4,39,-11,5,1,0,0,rectangle,-11,5,1,0,0,3,0,"[312,215,121,119,109,61,81,143,192,35,154,187,257,158,183,169,277,226,284,237]",-11,5,1,0,0,0,38,38,60,1,,,,,,,,,,,,,,,,,,,,,,,
,,,,,,,,,,,,,,,,,,,,,,,,,,,,,,,,,,,,,,,,,,,5d7d0cc0e32539001a174642,5fe192c7df8451428fad09fd,2020-12-22_07h31.57.817,FlowerSimilarity_Experiment,2020.1.2,Win32,60,5fe17d4a51f3a9c1a60f9869,,,,,,,,,,,,,,,,,,,3,PF,,0,0.80774,,,,,,,,,,,,,,,,,,,,,,,,,,,,,,,,,,-38,77,1,0,0,response7disk,6,40,-11,-10,1,0,0,rectangle,-11,-10,1,0,0,3,2,"[312,215,121,119,109,61,81,143,192,35,154,187,257,158,183,169,277,226,284,237]",-11,-10,1,0,0,0,39,39,47,1,,,,,,,,,,,,,,,,,,,,,,,
,,,,,,,,,,,,,,,,,,,,,,,,,,,,,,,,,,,,,,,,,,,5d7d0cc0e32539001a174642,5fe192c7df8451428fad09fd,2020-12-22_07h31.57.817,FlowerSimilarity_Experiment,2020.1.2,Win32,60,5fe17d4a51f3a9c1a60f9869,,,,,,,,,,,,,,,,,,,8,FF,,4,1.18321,,,,,,,,,,,,,,,,,,,,,,,,,,,,,,,,,,43,-67,1,0,0,response3disk,6,41,17,-4,1,0,0,rectangle,17,-4,1,0,0,3,0,"[312,215,121,119,109,61,81,143,192,35,154,187,257,158,183,169,277,226,284,237]",17,-4,1,0,0,0,40,40,37,1,,,,,,,,,,,,,,,,,,,,,,,
,,,,,,,,,,,,,,,,,,,,,,,,,,,,,,,,,,,,,,,,,,,5d7d0cc0e32539001a174642,5fe192c7df8451428fad09fd,2020-12-22_07h31.57.817,FlowerSimilarity_Experiment,2020.1.2,Win32,60,5fe17d4a51f3a9c1a60f9869,,,,,,,,,,,,,,,,,,,6,FF,,1,1.405845,,,,,,,,,,,,,,,,,,,,,,,,,,,,,,,,,,-71,31,1,0,0,response7disk,2,42,-11,-4,1,0,0,rectangle,-11,-4,1,0,0,3,6,"[312,215,121,119,109,61,81,143,192,35,154,187,257,158,183,169,277,226,284,237]",-11,-4,1,0,0,0,41,41,112,1,,,,,,,,,,,,,,,,,,,,,,,
,,,,,,,,,,,,,,,,,,,,,,,,,,,,,,,,,,,,,,,,,,,5d7d0cc0e32539001a174642,5fe192c7df8451428fad09fd,2020-12-22_07h31.57.817,FlowerSimilarity_Experiment,2020.1.2,Win32,60,5fe17d4a51f3a9c1a60f9869,,,,,,,,,,,,,,,,,,,3,FF,,3,1.61425,,,,,,,,,,,,,,,,,,,,,,,,,,,,,,,,,,-34,-65,1,0,0,response5disk,2,43,-15,-7,1,0,0,rectangle,-15,-7,1,0,0,3,7,"[312,215,121,119,109,61,81,143,192,35,154,187,257,158,183,169,277,226,284,237]",-15,-7,1,0,0,0,42,42,93,1,,,,,,,,,,,,,,,,,,,,,,,
,,,,,,,,,,,,,,,,,,,,,,,,,,,,,,,,,,,,,,,,,,,5d7d0cc0e32539001a174642,5fe192c7df8451428fad09fd,2020-12-22_07h31.57.817,FlowerSimilarity_Experiment,2020.1.2,Win32,60,5fe17d4a51f3a9c1a60f9869,,,,,,,,,,,,,,,,,,,5,PF,,0,0.90496,,,,,,,,,,,,,,,,,,,,,,,,,,,,,,,,,,-49,76,1,0,0,response7disk,9,44,-20,-7,1,0,0,rectangle,-20,-7,1,0,0,3,7,"[312,215,121,119,109,61,81,143,192,35,154,187,257,158,183,169,277,226,284,237]",-20,-7,1,0,0,0,43,43,136,1,,,,,,,,,,,,,,,,,,,,,,,
,,,,,,,,,,,,,,,,,,,,,,,,,,,,,,,,,,,,,,,,,,,5d7d0cc0e32539001a174642,5fe192c7df8451428fad09fd,2020-12-22_07h31.57.817,FlowerSimilarity_Experiment,2020.1.2,Win32,60,5fe17d4a51f3a9c1a60f9869,,,,,,,,,,,,,,,,,,,9,FF,,4,0.98846,,,,,,,,,,,,,,,,,,,,,,,,,,,,,,,,,,37,-60,1,0,0,response3disk,6,45,-3,-9,1,0,0,rectangle,-3,-9,1,0,0,3,5,"[312,215,121,119,109,61,81,143,192,35,154,187,257,158,183,169,277,226,284,237]",-3,-9,1,0,0,0,44,44,117,1,,,,,,,,,,,,,,,,,,,,,,,
,,,,,,,,,,,,,,,,,,,,,,,,,,,,,,,,,,,,,,,,,,,5d7d0cc0e32539001a174642,5fe192c7df8451428fad09fd,2020-12-22_07h31.57.817,FlowerSimilarity_Experiment,2020.1.2,Win32,60,5fe17d4a51f3a9c1a60f9869,,,,,,,,,,,,,,,,,,,7,PF,,1,1.057995,,,,,,,,,,,,,,,,,,,,,,,,,,,,,,,,,,-70,33,1,0,0,response7disk,8,46,-7,-3,1,0,0,rectangle,-7,-3,1,0,0,3,2,"[312,215,121,119,109,61,81,143,192,35,154,187,257,158,183,169,277,226,284,237]",-7,-3,1,0,0,0,45,45,140,1,,,,,,,,,,,,,,,,,,,,,,,
,,,,,,,,,,,,,,,,,,,,,,,,,,,,,,,,,,,,,,,,,,,5d7d0cc0e32539001a174642,5fe192c7df8451428fad09fd,2020-12-22_07h31.57.817,FlowerSimilarity_Experiment,2020.1.2,Win32,60,5fe17d4a51f3a9c1a60f9869,,,,,,,,,,,,,,,,,,,7,PF,,3,1.68371,,,,,,,,,,,,,,,,,,,,,,,,,,,,,,,,,,-31,-60,1,0,0,response5disk,4,47,-7,-10,1,0,0,rectangle,-7,-10,1,0,0,3,6,"[312,215,121,119,109,61,81,143,192,35,154,187,257,158,183,169,277,226,284,237]",-7,-10,1,0,0,0,46,46,43,1,,,,,,,,,,,,,,,,,,,,,,,
,,,,,,,,,,,,,,,,,,,,,,,,,,,,,,,,,,,,,,,,,,,5d7d0cc0e32539001a174642,5fe192c7df8451428fad09fd,2020-12-22_07h31.57.817,FlowerSimilarity_Experiment,2020.1.2,Win32,60,5fe17d4a51f3a9c1a60f9869,,,,,,,,,,,,,,,,,,,5,FF,,0,0.80688,,,,,,,,,,,,,,,,,,,,,,,,,,,,,,,,,,-43,80,1,0,0,response7disk,1,48,-13,-3,1,0,0,rectangle,-13,-3,1,0,0,3,7,"[312,215,121,119,109,61,81,143,192,35,154,187,257,158,183,169,277,226,284,237]",-13,-3,1,0,0,0,47,47,131,1,,,,,,,,,,,,,,,,,,,,,,,
,,,,,,,,,,,,,,,,,,,,,,,,,,,,,,,,,,,,,,,,,,,5d7d0cc0e32539001a174642,5fe192c7df8451428fad09fd,2020-12-22_07h31.57.817,FlowerSimilarity_Experiment,2020.1.2,Win32,60,5fe17d4a51f3a9c1a60f9869,,,,,,,,,,,,,,,,,,,6,PF,,0,1.07185,,,,,,,,,,,,,,,,,,,,,,,,,,,,,,,,,,-45,52,1,0,0,response7disk,3,49,-13,-2,1,0,0,rectangle,-13,-2,1,0,0,3,4,"[312,215,121,119,109,61,81,143,192,35,154,187,257,158,183,169,277,226,284,237]",-13,-2,1,0,0,0,48,48,26,1,,,,,,,,,,,,,,,,,,,,,,,
,,,,,,,,,,,,,,,,,,,,,,,,,,,,,,,,,,,,,,,,,,,5d7d0cc0e32539001a174642,5fe192c7df8451428fad09fd,2020-12-22_07h31.57.817,FlowerSimilarity_Experiment,2020.1.2,Win32,60,5fe17d4a51f3a9c1a60f9869,,,,,,,,,,,,,,,,,,,4,PF,,5,0.961055,,,,,,,,,,,,,,,,,,,,,,,,,,,,,,,,,,74,-28,1,0,0,response3disk,2,50,16,-1,1,0,0,rectangle,16,-1,1,0,0,3,7,"[312,215,121,119,109,61,81,143,192,35,154,187,257,158,183,169,277,226,284,237]",16,-1,1,0,0,0,49,49,108,1,,,,,,,,,,,,,,,,,,,,,,,
,,,,,,,,,,,,,,,,,,,,,,,,,,,,,,,,,,,,,,,,,,,5d7d0cc0e32539001a174642,5fe192c7df8451428fad09fd,2020-12-22_07h31.57.817,FlowerSimilarity_Experiment,2020.1.2,Win32,60,5fe17d4a51f3a9c1a60f9869,,,,,,,,,,,,,,,,,,,5,PF,,2,0.98868,,,,,,,,,,,,,,,,,,,,,,,,,,,,,,,,,,-45,-32,1,0,0,response5disk,7,51,10,-4,1,0,0,rectangle,10,-4,1,0,0,3,7,"[312,215,121,119,109,61,81,143,192,35,154,187,257,158,183,169,277,226,284,237]",10,-4,1,0,0,0,50,50,146,1,,,,,,,,,,,,,,,,,,,,,,,
,,,,,,,,,,,,,,,,,,,,,,,,,,,,,,,,,,,,,,,,,,,5d7d0cc0e32539001a174642,5fe192c7df8451428fad09fd,2020-12-22_07h31.57.817,FlowerSimilarity_Experiment,2020.1.2,Win32,60,5fe17d4a51f3a9c1a60f9869,,,,,,,,,,,,,,,,,,,9,FF,,0,0.821695,,,,,,,,,,,,,,,,,,,,,,,,,,,,,,,,,,-52,81,1,0,0,response7disk,7,52,-13,10,1,0,0,rectangle,-13,10,1,0,0,3,6,"[312,215,121,119,109,61,81,143,192,35,154,187,257,158,183,169,277,226,284,237]",-13,10,1,0,0,0,51,51,100,1,,,,,,,,,,,,,,,,,,,,,,,
,,,,,,,,,,,,,,,,,,,,,,,,,,,,,,,,,,,,,,,,,,,5d7d0cc0e32539001a174642,5fe192c7df8451428fad09fd,2020-12-22_07h31.57.817,FlowerSimilarity_Experiment,2020.1.2,Win32,60,5fe17d4a51f3a9c1a60f9869,,,,,,,,,,,,,,,,,,,1,PF,,7,0.988445,,,,,,,,,,,,,,,,,,,,,,,,,,,,,,,,,,47,115,1,0,0,response1disk,1,53,0,-9,1,0,0,rectangle,0,-9,1,0,0,3,4,"[312,215,121,119,109,61,81,143,192,35,154,187,257,158,183,169,277,226,284,237]",0,-9,1,0,0,0,52,52,76,1,,,,,,,,,,,,,,,,,,,,,,,
,,,,,,,,,,,,,,,,,,,,,,,,,,,,,,,,,,,,,,,,,,,5d7d0cc0e32539001a174642,5fe192c7df8451428fad09fd,2020-12-22_07h31.57.817,FlowerSimilarity_Experiment,2020.1.2,Win32,60,5fe17d4a51f3a9c1a60f9869,,,,,,,,,,,,,,,,,,,1,PF,,0,0.752305,,,,,,,,,,,,,,,,,,,,,,,,,,,,,,,,,,-31,67,1,0,0,response7disk,7,54,-8,-2,1,0,0,rectangle,-8,-2,1,0,0,3,3,"[312,215,121,119,109,61,81,143,192,35,154,187,257,158,183,169,277,226,284,237]",-8,-2,1,0,0,0,53,53,150,1,,,,,,,,,,,,,,,,,,,,,,,
,,,,,,,,,,,,,,,,,,,,,,,,,,,,,,,,,,,,,,,,,,,5d7d0cc0e32539001a174642,5fe192c7df8451428fad09fd,2020-12-22_07h31.57.817,FlowerSimilarity_Experiment,2020.1.2,Win32,60,5fe17d4a51f3a9c1a60f9869,,,,,,,,,,,,,,,,,,,4,FF,,7,1.18308,,,,,,,,,,,,,,,,,,,,,,,,,,,,,,,,,,39,83,1,0,0,response1disk,4,55,-7,-5,1,0,0,rectangle,-7,-5,1,0,0,3,4,"[312,215,121,119,109,61,81,143,192,35,154,187,257,158,183,169,277,226,284,237]",-7,-5,1,0,0,0,54,54,84,1,,,,,,,,,,,,,,,,,,,,,,,
,,,,,,,,,,,,,,,,,,,,,,,,,,,,,,,,,,,,,,,,,,,5d7d0cc0e32539001a174642,5fe192c7df8451428fad09fd,2020-12-22_07h31.57.817,FlowerSimilarity_Experiment,2020.1.2,Win32,60,5fe17d4a51f3a9c1a60f9869,,,,,,,,,,,,,,,,,,,3,PF,,6,0.98905,,,,,,,,,,,,,,,,,,,,,,,,,,,,,,,,,,80,47,1,0,0,response1disk,7,56,3,3,1,0,0,rectangle,3,3,1,0,0,3,2,"[312,215,121,119,109,61,81,143,192,35,154,187,257,158,183,169,277,226,284,237]",3,3,1,0,0,0,55,55,41,1,,,,,,,,,,,,,,,,,,,,,,,
,,,,,,,,,,,,,,,,,,,,,,,,,,,,,,,,,,,,,,,,,,,5d7d0cc0e32539001a174642,5fe192c7df8451428fad09fd,2020-12-22_07h31.57.817,FlowerSimilarity_Experiment,2020.1.2,Win32,60,5fe17d4a51f3a9c1a60f9869,,,,,,,,,,,,,,,,,,,7,FF,,7,0.766015,,,,,,,,,,,,,,,,,,,,,,,,,,,,,,,,,,46,88,1,0,0,response1disk,7,57,9,-6,1,0,0,rectangle,9,-6,1,0,0,3,3,"[312,215,121,119,109,61,81,143,192,35,154,187,257,158,183,169,277,226,284,237]",9,-6,1,0,0,0,56,56,34,1,,,,,,,,,,,,,,,,,,,,,,,
,,,,,,,,,,,,,,,,,,,,,,,,,,,,,,,,,,,,,,,,,,,5d7d0cc0e32539001a174642,5fe192c7df8451428fad09fd,2020-12-22_07h31.57.817,FlowerSimilarity_Experiment,2020.1.2,Win32,60,5fe17d4a51f3a9c1a60f9869,,,,,,,,,,,,,,,,,,,5,PF,,4,1.016305,,,,,,,,,,,,,,,,,,,,,,,,,,,,,,,,,,29,-52,1,0,0,response3disk,2,58,8,-8,1,0,0,rectangle,8,-8,1,0,0,3,3,"[312,215,121,119,109,61,81,143,192,35,154,187,257,158,183,169,277,226,284,237]",8,-8,1,0,0,0,57,57,129,1,,,,,,,,,,,,,,,,,,,,,,,
,,,,,,,,,,,,,,,,,,,,,,,,,,,,,,,,,,,,,,,,,,,5d7d0cc0e32539001a174642,5fe192c7df8451428fad09fd,2020-12-22_07h31.57.817,FlowerSimilarity_Experiment,2020.1.2,Win32,60,5fe17d4a51f3a9c1a60f9869,,,,,,,,,,,,,,,,,,,7,FF,,1,0.946735,,,,,,,,,,,,,,,,,,,,,,,,,,,,,,,,,,-68,41,1,0,0,response7disk,8,59,5,6,1,0,0,rectangle,5,6,1,0,0,3,0,"[312,215,121,119,109,61,81,143,192,35,154,187,257,158,183,169,277,226,284,237]",5,6,1,0,0,0,58,58,97,1,,,,,,,,,,,,,,,,,,,,,,,
,,,,,,,,,,,,,,,,,,,,,,,,,,,,,,,,,,,,,,,,,,,5d7d0cc0e32539001a174642,5fe192c7df8451428fad09fd,2020-12-22_07h31.57.817,FlowerSimilarity_Experiment,2020.1.2,Win32,60,5fe17d4a51f3a9c1a60f9869,,,,,,,,,,,,,,,,,,,7,FF,,0,0.71026,,,,,,,,,,,,,,,,,,,,,,,,,,,,,,,,,,-46,76,1,0,0,response7disk,1,60,-10,-1,1,0,0,rectangle,-10,-1,1,0,0,3,0,"[312,215,121,119,109,61,81,143,192,35,154,187,257,158,183,169,277,226,284,237]",-10,-1,1,0,0,0,59,59,132,1,,,,,,,,,,,,,,,,,,,,,,,
,,,,,,,,,,,,,,,,,,,,,,,,,,,,,,,,,,,,,,,,,,,5d7d0cc0e32539001a174642,5fe192c7df8451428fad09fd,2020-12-22_07h31.57.817,FlowerSimilarity_Experiment,2020.1.2,Win32,60,5fe17d4a51f3a9c1a60f9869,,,,,,,,,,,,,,,,,,,7,PF,,0,0.73814,,,,,,,,,,,,,,,,,,,,,,,,,,,,,,,,,,-21,84,1,0,0,response7disk,6,61,8,-4,1,0,0,rectangle,-90,-41,1,0,0,3,2,"[312,215,121,119,109,61,81,143,192,35,154,187,257,158,183,169,277,226,284,237]",-5,-5,1,0,0,0,60,60,29,1,response5disk_3,rectangle,,,,,,,,,,,,,,,,,,,,,
,,,,,,,,,,,,,,,,,,,,,,,,,,,,,,,,,,,,,,,,,,,5d7d0cc0e32539001a174642,5fe192c7df8451428fad09fd,2020-12-22_07h31.57.817,FlowerSimilarity_Experiment,2020.1.2,Win32,60,5fe17d4a51f3a9c1a60f9869,,,,,,,,,,,,,,,,,,,2,FF,,1,0.905065,,,,,,,,,,,,,,,,,,,,,,,,,,,,,,,,,,-78,35,1,0,0,response7disk,7,62,5,-1,1,0,0,rectangle,5,-1,1,0,0,3,0,"[312,215,121,119,109,61,81,143,192,35,154,187,257,158,183,169,277,226,284,237]",5,-1,1,0,0,0,61,61,63,1,,,,,,,,,,,,,,,,,,,,,,,
,,,,,,,,,,,,,,,,,,,,,,,,,,,,,,,,,,,,,,,,,,,5d7d0cc0e32539001a174642,5fe192c7df8451428fad09fd,2020-12-22_07h31.57.817,FlowerSimilarity_Experiment,2020.1.2,Win32,60,5fe17d4a51f3a9c1a60f9869,,,,,,,,,,,,,,,,,,,9,PF,,5,1.225155,,,,,,,,,,,,,,,,,,,,,,,,,,,,,,,,,,82,-21,1,0,0,response3disk,6,63,6,-3,1,0,0,rectangle,6,-3,1,0,0,3,6,"[312,215,121,119,109,61,81,143,192,35,154,187,257,158,183,169,277,226,284,237]",6,-3,1,0,0,0,62,62,148,1,,,,,,,,,,,,,,,,,,,,,,,
,,,,,,,,,,,,,,,,,,,,,,,,,,,,,,,,,,,,,,,,,,,5d7d0cc0e32539001a174642,5fe192c7df8451428fad09fd,2020-12-22_07h31.57.817,FlowerSimilarity_Experiment,2020.1.2,Win32,60,5fe17d4a51f3a9c1a60f9869,,,,,,,,,,,,,,,,,,,3,FF,,4,1.294445,,,,,,,,,,,,,,,,,,,,,,,,,,,,,,,,,,44,-52,1,0,0,response3disk,8,64,1,10,1,0,0,rectangle,1,10,1,0,0,3,3,"[312,215,121,119,109,61,81,143,192,35,154,187,257,158,183,169,277,226,284,237]",1,10,1,0,0,0,63,63,44,1,,,,,,,,,,,,,,,,,,,,,,,
,,,,,,,,,,,,,,,,,,,,,,,,,,,,,,,,,,,,,,,,,,,5d7d0cc0e32539001a174642,5fe192c7df8451428fad09fd,2020-12-22_07h31.57.817,FlowerSimilarity_Experiment,2020.1.2,Win32,60,5fe17d4a51f3a9c1a60f9869,,,,,,,,,,,,,,,,,,,5,FF,,2,1.044575,,,,,,,,,,,,,,,,,,,,,,,,,,,,,,,,,,-82,-35,1,0,0,response5disk,3,65,14,-6,1,0,0,rectangle,14,-6,1,0,0,3,6,"[312,215,121,119,109,61,81,143,192,35,154,187,257,158,183,169,277,226,284,237]",14,-6,1,0,0,0,64,64,25,1,,,,,,,,,,,,,,,,,,,,,,,
,,,,,,,,,,,,,,,,,,,,,,,,,,,,,,,,,,,,,,,,,,,5d7d0cc0e32539001a174642,5fe192c7df8451428fad09fd,2020-12-22_07h31.57.817,FlowerSimilarity_Experiment,2020.1.2,Win32,60,5fe17d4a51f3a9c1a60f9869,,,,,,,,,,,,,,,,,,,3,PF,,0,1.23894,,,,,,,,,,,,,,,,,,,,,,,,,,,,,,,,,,-36,106,1,0,0,response7disk,1,66,11,4,1,0,0,rectangle,11,4,1,0,0,3,4,"[312,215,121,119,109,61,81,143,192,35,154,187,257,158,183,169,277,226,284,237]",11,4,1,0,0,0,65,65,96,1,,,,,,,,,,,,,,,,,,,,,,,
,,,,,,,,,,,,,,,,,,,,,,,,,,,,,,,,,,,,,,,,,,,5d7d0cc0e32539001a174642,5fe192c7df8451428fad09fd,2020-12-22_07h31.57.817,FlowerSimilarity_Experiment,2020.1.2,Win32,60,5fe17d4a51f3a9c1a60f9869,,,,,,,,,,,,,,,,,,,6,FF,,4,1.210855,,,,,,,,,,,,,,,,,,,,,,,,,,,,,,,,,,38,-96,1,0,0,response3disk,1,67,19,-14,1,0,0,rectangle,19,-14,1,0,0,3,5,"[312,215,121,119,109,61,81,143,192,35,154,187,257,158,183,169,277,226,284,237]",19,-14,1,0,0,0,66,66,5,1,,,,,,,,,,,,,,,,,,,,,,,
,,,,,,,,,,,,,,,,,,,,,,,,,,,,,,,,,,,,,,,,,,,5d7d0cc0e32539001a174642,5fe192c7df8451428fad09fd,2020-12-22_07h31.57.817,FlowerSimilarity_Experiment,2020.1.2,Win32,60,5fe17d4a51f3a9c1a60f9869,,,,,,,,,,,,,,,,,,,1,PF,,0,0.738185,,,,,,,,,,,,,,,,,,,,,,,,,,,,,,,,,,-29,79,1,0,0,response7disk,8,68,14,5,1,0,0,rectangle,14,5,1,0,0,3,5,"[312,215,121,119,109,61,81,143,192,35,154,187,257,158,183,169,277,226,284,237]",14,5,1,0,0,0,67,67,65,1,,,,,,,,,,,,,,,,,,,,,,,
,,,,,,,,,,,,,,,,,,,,,,,,,,,,,,,,,,,,,,,,,,,5d7d0cc0e32539001a174642,5fe192c7df8451428fad09fd,2020-12-22_07h31.57.817,FlowerSimilarity_Experiment,2020.1.2,Win32,60,5fe17d4a51f3a9c1a60f9869,,,,,,,,,,,,,,,,,,,7,PF,,2,1.01647,,,,,,,,,,,,,,,,,,,,,,,,,,,,,,,,,,-49,-34,1,0,0,response5disk,5,69,-5,-9,1,0,0,rectangle,-5,-9,1,0,0,3,0,"[312,215,121,119,109,61,81,143,192,35,154,187,257,158,183,169,277,226,284,237]",-5,-9,1,0,0,0,68,68,92,1,,,,,,,,,,,,,,,,,,,,,,,
,,,,,,,,,,,,,,,,,,,,,,,,,,,,,,,,,,,,,,,,,,,5d7d0cc0e32539001a174642,5fe192c7df8451428fad09fd,2020-12-22_07h31.57.817,FlowerSimilarity_Experiment,2020.1.2,Win32,60,5fe17d4a51f3a9c1a60f9869,,,,,,,,,,,,,,,,,,,2,FF,,0,0.696395,,,,,,,,,,,,,,,,,,,,,,,,,,,,,,,,,,-25,86,1,0,0,response7disk,9,70,-1,8,1,0,0,rectangle,-1,8,1,0,0,3,1,"[312,215,121,119,109,61,81,143,192,35,154,187,257,158,183,169,277,226,284,237]",-1,8,1,0,0,0,69,69,72,1,,,,,,,,,,,,,,,,,,,,,,,
,,,,,,,,,,,,,,,,,,,,,,,,,,,,,,,,,,,,,,,,,,,5d7d0cc0e32539001a174642,5fe192c7df8451428fad09fd,2020-12-22_07h31.57.817,FlowerSimilarity_Experiment,2020.1.2,Win32,60,5fe17d4a51f3a9c1a60f9869,,,,,,,,,,,,,,,,,,,8,PF,,2,0.988515,,,,,,,,,,,,,,,,,,,,,,,,,,,,,,,,,,-54,-37,1,0,0,response5disk,3,71,-4,-9,1,0,0,rectangle,-4,-9,1,0,0,3,2,"[312,215,121,119,109,61,81,143,192,35,154,187,257,158,183,169,277,226,284,237]",-4,-9,1,0,0,0,70,70,71,1,,,,,,,,,,,,,,,,,,,,,,,
,,,,,,,,,,,,,,,,,,,,,,,,,,,,,,,,,,,,,,,,,,,5d7d0cc0e32539001a174642,5fe192c7df8451428fad09fd,2020-12-22_07h31.57.817,FlowerSimilarity_Experiment,2020.1.2,Win32,60,5fe17d4a51f3a9c1a60f9869,,,,,,,,,,,,,,,,,,,8,PF,,0,1.642315,,,,,,,,,,,,,,,,,,,,,,,,,,,,,,,,,,-49,88,1,0,0,response7disk,4,72,-24,12,1,0,0,rectangle,-24,12,1,0,0,3,1,"[312,215,121,119,109,61,81,143,192,35,154,187,257,158,183,169,277,226,284,237]",-24,12,1,0,0,0,71,71,78,1,,,,,,,,,,,,,,,,,,,,,,,
,,,,,,,,,,,,,,,,,,,,,,,,,,,,,,,,,,,,,,,,,,,5d7d0cc0e32539001a174642,5fe192c7df8451428fad09fd,2020-12-22_07h31.57.817,FlowerSimilarity_Experiment,2020.1.2,Win32,60,5fe17d4a51f3a9c1a60f9869,,,,,,,,,,,,,,,,,,,4,FF,,3,1.002205,,,,,,,,,,,,,,,,,,,,,,,,,,,,,,,,,,-35,-90,1,0,0,response5disk,3,73,7,-9,1,0,0,rectangle,7,-9,1,0,0,3,1,"[312,215,121,119,109,61,81,143,192,35,154,187,257,158,183,169,277,226,284,237]",7,-9,1,0,0,0,72,72,77,1,,,,,,,,,,,,,,,,,,,,,,,
,,,,,,,,,,,,,,,,,,,,,,,,,,,,,,,,,,,,,,,,,,,5d7d0cc0e32539001a174642,5fe192c7df8451428fad09fd,2020-12-22_07h31.57.817,FlowerSimilarity_Experiment,2020.1.2,Win32,60,5fe17d4a51f3a9c1a60f9869,,,,,,,,,,,,,,,,,,,9,FF,,0,0.695755,,,,,,,,,,,,,,,,,,,,,,,,,,,,,,,,,,-43,87,1,0,0,response7disk,5,74,5,-5,1,0,0,rectangle,5,-5,1,0,0,3,4,"[312,215,121,119,109,61,81,143,192,35,154,187,257,158,183,169,277,226,284,237]",5,-5,1,0,0,0,73,73,128,1,,,,,,,,,,,,,,,,,,,,,,,
,,,,,,,,,,,,,,,,,,,,,,,,,,,,,,,,,,,,,,,,,,,5d7d0cc0e32539001a174642,5fe192c7df8451428fad09fd,2020-12-22_07h31.57.817,FlowerSimilarity_Experiment,2020.1.2,Win32,60,5fe17d4a51f3a9c1a60f9869,,,,,,,,,,,,,,,,,,,4,FF,,0,0.988365,,,,,,,,,,,,,,,,,,,,,,,,,,,,,,,,,,-57,99,1,0,0,response7disk,8,75,15,-8,1,0,0,rectangle,15,-8,1,0,0,3,4,"[312,215,121,119,109,61,81,143,192,35,154,187,257,158,183,169,277,226,284,237]",15,-8,1,0,0,0,74,74,35,1,,,,,,,,,,,,,,,,,,,,,,,
,,,,,,,,,,,,,,,,,,,,,,,,,,,,,,,,,,,,,,,,,,,5d7d0cc0e32539001a174642,5fe192c7df8451428fad09fd,2020-12-22_07h31.57.817,FlowerSimilarity_Experiment,2020.1.2,Win32,60,5fe17d4a51f3a9c1a60f9869,,,,,,,,,,,,,,,,,,,2,FF,,7,0.98791,,,,,,,,,,,,,,,,,,,,,,,,,,,,,,,,,,47,99,1,0,0,response1disk,2,76,5,-2,1,0,0,rectangle,5,-2,1,0,0,3,0,"[312,215,121,119,109,61,81,143,192,35,154,187,257,158,183,169,277,226,284,237]",5,-2,1,0,0,0,75,75,142,1,,,,,,,,,,,,,,,,,,,,,,,
,,,,,,,,,,,,,,,,,,,,,,,,,,,,,,,,,,,,,,,,,,,5d7d0cc0e32539001a174642,5fe192c7df8451428fad09fd,2020-12-22_07h31.57.817,FlowerSimilarity_Experiment,2020.1.2,Win32,60,5fe17d4a51f3a9c1a60f9869,,,,,,,,,,,,,,,,,,,3,FF,,7,0.76604,,,,,,,,,,,,,,,,,,,,,,,,,,,,,,,,,,32,103,1,0,0,response1disk,7,77,-15,-13,1,0,0,rectangle,-15,-13,1,0,0,3,4,"[312,215,121,119,109,61,81,143,192,35,154,187,257,158,183,169,277,226,284,237]",-15,-13,1,0,0,0,76,76,118,1,,,,,,,,,,,,,,,,,,,,,,,
,,,,,,,,,,,,,,,,,,,,,,,,,,,,,,,,,,,,,,,,,,,5d7d0cc0e32539001a174642,5fe192c7df8451428fad09fd,2020-12-22_07h31.57.817,FlowerSimilarity_Experiment,2020.1.2,Win32,60,5fe17d4a51f3a9c1a60f9869,,,,,,,,,,,,,,,,,,,5,FF,,1,1.489285,,,,,,,,,,,,,,,,,,,,,,,,,,,,,,,,,,-91,33,1,0,0,response7disk,6,78,-9,-4,1,0,0,rectangle,-9,-4,1,0,0,3,5,"[312,215,121,119,109,61,81,143,192,35,154,187,257,158,183,169,277,226,284,237]",-9,-4,1,0,0,0,77,77,12,1,,,,,,,,,,,,,,,,,,,,,,,
,,,,,,,,,,,,,,,,,,,,,,,,,,,,,,,,,,,,,,,,,,,5d7d0cc0e32539001a174642,5fe192c7df8451428fad09fd,2020-12-22_07h31.57.817,FlowerSimilarity_Experiment,2020.1.2,Win32,60,5fe17d4a51f3a9c1a60f9869,,,,,,,,,,,,,,,,,,,4,FF,,0,0.682515,,,,,,,,,,,,,,,,,,,,,,,,,,,,,,,,,,-51,86,1,0,0,response7disk,1,79,5,-9,1,0,0,rectangle,5,-9,1,0,0,3,0,"[312,215,121,119,109,61,81,143,192,35,154,187,257,158,183,169,277,226,284,237]",5,-9,1,0,0,0,78,78,102,1,,,,,,,,,,,,,,,,,,,,,,,
,,,,,,,,,,,,,,,,,,,,,,,,,,,,,,,,,,,,,,,,,,,5d7d0cc0e32539001a174642,5fe192c7df8451428fad09fd,2020-12-22_07h31.57.817,FlowerSimilarity_Experiment,2020.1.2,Win32,60,5fe17d4a51f3a9c1a60f9869,,,,,,,,,,,,,,,,,,,3,FF,,0,0.96055,,,,,,,,,,,,,,,,,,,,,,,,,,,,,,,,,,-35,69,1,0,0,response7disk,5,80,28,-3,1,0,0,rectangle,28,-3,1,0,0,3,3,"[312,215,121,119,109,61,81,143,192,35,154,187,257,158,183,169,277,226,284,237]",28,-3,1,0,0,0,79,79,101,1,,,,,,,,,,,,,,,,,,,,,,,
,,,,,,,,,,,,,,,,,,,,,,,,,,,,,,,,,,,,,,,,,,,5d7d0cc0e32539001a174642,5fe192c7df8451428fad09fd,2020-12-22_07h31.57.817,FlowerSimilarity_Experiment,2020.1.2,Win32,60,5fe17d4a51f3a9c1a60f9869,,,,,,,,,,,,,,,,,,,9,PF,,0,0.557525,,,,,,,,,,,,,,,,,,,,,,,,,,,,,,,,,,-49,84,1,0,0,response7disk,5,81,4,4,1,0,0,rectangle,127,61,1,0,0,6,6,"[312,215,121,119,109,61,81,143,192,35,154,187,257,158,183,169,277,226,284,237]",13,-2,1,0,0,0,80,80,134,1,response1disk_3,rectangle,,,,,,,,,,,,,,,,,,,,,
,,,,,,,,,,,,,,,,,,,,,,,,,,,,,,,,,,,,,,,,,,,5d7d0cc0e32539001a174642,5fe192c7df8451428fad09fd,2020-12-22_07h31.57.817,FlowerSimilarity_Experiment,2020.1.2,Win32,60,5fe17d4a51f3a9c1a60f9869,,,,,,,,,,,,,,,,,,,4,PF,,6,1.09974,,,,,,,,,,,,,,,,,,,,,,,,,,,,,,,,,,66,27,1,0,0,response1disk,3,82,15,-2,1,0,0,rectangle,15,-2,1,0,0,6,7,"[312,215,121,119,109,61,81,143,192,35,154,187,257,158,183,169,277,226,284,237]",15,-2,1,0,0,0,81,81,89,1,,,,,,,,,,,,,,,,,,,,,,,
,,,,,,,,,,,,,,,,,,,,,,,,,,,,,,,,,,,,,,,,,,,5d7d0cc0e32539001a174642,5fe192c7df8451428fad09fd,2020-12-22_07h31.57.817,FlowerSimilarity_Experiment,2020.1.2,Win32,60,5fe17d4a51f3a9c1a60f9869,,,,,,,,,,,,,,,,,,,1,FF,,0,0.863475,,,,,,,,,,,,,,,,,,,,,,,,,,,,,,,,,,-40,85,1,0,0,response7disk,2,83,13,11,1,0,0,rectangle,13,11,1,0,0,6,5,"[312,215,121,119,109,61,81,143,192,35,154,187,257,158,183,169,277,226,284,237]",13,11,1,0,0,0,82,82,2,1,,,,,,,,,,,,,,,,,,,,,,,
,,,,,,,,,,,,,,,,,,,,,,,,,,,,,,,,,,,,,,,,,,,5d7d0cc0e32539001a174642,5fe192c7df8451428fad09fd,2020-12-22_07h31.57.817,FlowerSimilarity_Experiment,2020.1.2,Win32,60,5fe17d4a51f3a9c1a60f9869,,,,,,,,,,,,,,,,,,,3,PF,,2,1.127415,,,,,,,,,,,,,,,,,,,,,,,,,,,,,,,,,,-59,-34,1,0,0,response5disk,4,84,5,-17,1,0,0,rectangle,5,-17,1,0,0,6,2,"[312,215,121,119,109,61,81,143,192,35,154,187,257,158,183,169,277,226,284,237]",5,-17,1,0,0,0,83,83,30,1,,,,,,,,,,,,,,,,,,,,,,,
,,,,,,,,,,,,,,,,,,,,,,,,,,,,,,,,,,,,,,,,,,,5d7d0cc0e32539001a174642,5fe192c7df8451428fad09fd,2020-12-22_07h31.57.817,FlowerSimilarity_Experiment,2020.1.2,Win32,60,5fe17d4a51f3a9c1a60f9869,,,,,,,,,,,,,,,,,,,7,FF,,2,1.252625,,,,,,,,,,,,,,,,,,,,,,,,,,,,,,,,,,-67,-26,1,0,0,response5disk,2,85,3,2,1,0,0,rectangle,3,2,1,0,0,6,1,"[312,215,121,119,109,61,81,143,192,35,154,187,257,158,183,169,277,226,284,237]",3,2,1,0,0,0,84,84,138,1,,,,,,,,,,,,,,,,,,,,,,,
,,,,,,,,,,,,,,,,,,,,,,,,,,,,,,,,,,,,,,,,,,,5d7d0cc0e32539001a174642,5fe192c7df8451428fad09fd,2020-12-22_07h31.57.817,FlowerSimilarity_Experiment,2020.1.2,Win32,60,5fe17d4a51f3a9c1a60f9869,,,,,,,,,,,,,,,,,,,5,PF,,4,1.266565,,,,,,,,,,,,,,,,,,,,,,,,,,,,,,,,,,47,-83,1,0,0,response3disk,8,86,-4,-9,1,0,0,rectangle,-4,-9,1,0,0,6,5,"[312,215,121,119,109,61,81,143,192,35,154,187,257,158,183,169,277,226,284,237]",-4,-9,1,0,0,0,85,85,149,1,,,,,,,,,,,,,,,,,,,,,,,
,,,,,,,,,,,,,,,,,,,,,,,,,,,,,,,,,,,,,,,,,,,5d7d0cc0e32539001a174642,5fe192c7df8451428fad09fd,2020-12-22_07h31.57.817,FlowerSimilarity_Experiment,2020.1.2,Win32,60,5fe17d4a51f3a9c1a60f9869,,,,,,,,,,,,,,,,,,,2,FF,,1,1.01604,,,,,,,,,,,,,,,,,,,,,,,,,,,,,,,,,,-73,40,1,0,0,response7disk,3,87,5,12,1,0,0,rectangle,5,12,1,0,0,6,5,"[312,215,121,119,109,61,81,143,192,35,154,187,257,158,183,169,277,226,284,237]",5,12,1,0,0,0,86,86,104,1,,,,,,,,,,,,,,,,,,,,,,,
,,,,,,,,,,,,,,,,,,,,,,,,,,,,,,,,,,,,,,,,,,,5d7d0cc0e32539001a174642,5fe192c7df8451428fad09fd,2020-12-22_07h31.57.817,FlowerSimilarity_Experiment,2020.1.2,Win32,60,5fe17d4a51f3a9c1a60f9869,,,,,,,,,,,,,,,,,,,7,FF,,0,0.78028,,,,,,,,,,,,,,,,,,,,,,,,,,,,,,,,,,-36,74,1,0,0,response7disk,9,88,1,8,1,0,0,rectangle,1,8,1,0,0,6,1,"[312,215,121,119,109,61,81,143,192,35,154,187,257,158,183,169,277,226,284,237]",1,8,1,0,0,0,87,87,155,1,,,,,,,,,,,,,,,,,,,,,,,
,,,,,,,,,,,,,,,,,,,,,,,,,,,,,,,,,,,,,,,,,,,5d7d0cc0e32539001a174642,5fe192c7df8451428fad09fd,2020-12-22_07h31.57.817,FlowerSimilarity_Experiment,2020.1.2,Win32,60,5fe17d4a51f3a9c1a60f9869,,,,,,,,,,,,,,,,,,,3,FF,,0,0.51498,,,,,,,,,,,,,,,,,,,,,,,,,,,,,,,,,,-41,83,1,0,0,response7disk,1,89,5,12,1,0,0,rectangle,5,12,1,0,0,6,7,"[312,215,121,119,109,61,81,143,192,35,154,187,257,158,183,169,277,226,284,237]",5,12,1,0,0,0,88,88,125,1,,,,,,,,,,,,,,,,,,,,,,,
,,,,,,,,,,,,,,,,,,,,,,,,,,,,,,,,,,,,,,,,,,,5d7d0cc0e32539001a174642,5fe192c7df8451428fad09fd,2020-12-22_07h31.57.817,FlowerSimilarity_Experiment,2020.1.2,Win32,60,5fe17d4a51f3a9c1a60f9869,,,,,,,,,,,,,,,,,,,9,PF,,0,0.59939,,,,,,,,,,,,,,,,,,,,,,,,,,,,,,,,,,-33,79,1,0,0,response7disk,8,90,-3,9,1,0,0,rectangle,-3,9,1,0,0,6,1,"[312,215,121,119,109,61,81,143,192,35,154,187,257,158,183,169,277,226,284,237]",-3,9,1,0,0,0,89,89,67,1,,,,,,,,,,,,,,,,,,,,,,,
,,,,,,,,,,,,,,,,,,,,,,,,,,,,,,,,,,,,,,,,,,,5d7d0cc0e32539001a174642,5fe192c7df8451428fad09fd,2020-12-22_07h31.57.817,FlowerSimilarity_Experiment,2020.1.2,Win32,60,5fe17d4a51f3a9c1a60f9869,,,,,,,,,,,,,,,,,,,4,FF,,2,1.04414,,,,,,,,,,,,,,,,,,,,,,,,,,,,,,,,,,-77,-39,1,0,0,response5disk,2,91,-5,-6,1,0,0,rectangle,-5,-6,1,0,0,6,5,"[312,215,121,119,109,61,81,143,192,35,154,187,257,158,183,169,277,226,284,237]",-5,-6,1,0,0,0,90,90,13,1,,,,,,,,,,,,,,,,,,,,,,,
,,,,,,,,,,,,,,,,,,,,,,,,,,,,,,,,,,,,,,,,,,,5d7d0cc0e32539001a174642,5fe192c7df8451428fad09fd,2020-12-22_07h31.57.817,FlowerSimilarity_Experiment,2020.1.2,Win32,60,5fe17d4a51f3a9c1a60f9869,,,,,,,,,,,,,,,,,,,7,PF,,7,0.76585,,,,,,,,,,,,,,,,,,,,,,,,,,,,,,,,,,41,109,1,0,0,response1disk,3,92,-10,18,1,0,0,rectangle,-10,18,1,0,0,6,3,"[312,215,121,119,109,61,81,143,192,35,154,187,257,158,183,169,277,226,284,237]",-10,18,1,0,0,0,91,91,81,1,,,,,,,,,,,,,,,,,,,,,,,
,,,,,,,,,,,,,,,,,,,,,,,,,,,,,,,,,,,,,,,,,,,5d7d0cc0e32539001a174642,5fe192c7df8451428fad09fd,2020-12-22_07h31.57.817,FlowerSimilarity_Experiment,2020.1.2,Win32,60,5fe17d4a51f3a9c1a60f9869,,,,,,,,,,,,,,,,,,,4,PF,,0,1.002345,,,,,,,,,,,,,,,,,,,,,,,,,,,,,,,,,,-38,80,1,0,0,response7disk,6,93,7,9,1,0,0,rectangle,7,9,1,0,0,6,6,"[312,215,121,119,109,61,81,143,192,35,154,187,257,158,183,169,277,226,284,237]",7,9,1,0,0,0,92,92,120,1,,,,,,,,,,,,,,,,,,,,,,,
,,,,,,,,,,,,,,,,,,,,,,,,,,,,,,,,,,,,,,,,,,,5d7d0cc0e32539001a174642,5fe192c7df8451428fad09fd,2020-12-22_07h31.57.817,FlowerSimilarity_Experiment,2020.1.2,Win32,60,5fe17d4a51f3a9c1a60f9869,,,,,,,,,,,,,,,,,,,9,PF,,6,1.488975,,,,,,,,,,,,,,,,,,,,,,,,,,,,,,,,,,51,43,1,0,0,response1disk,9,94,-6,-8,1,0,0,rectangle,-6,-8,1,0,0,6,4,"[312,215,121,119,109,61,81,143,192,35,154,187,257,158,183,169,277,226,284,237]",-6,-8,1,0,0,0,93,93,106,1,,,,,,,,,,,,,,,,,,,,,,,
,,,,,,,,,,,,,,,,,,,,,,,,,,,,,,,,,,,,,,,,,,,5d7d0cc0e32539001a174642,5fe192c7df8451428fad09fd,2020-12-22_07h31.57.817,FlowerSimilarity_Experiment,2020.1.2,Win32,60,5fe17d4a51f3a9c1a60f9869,,,,,,,,,,,,,,,,,,,1,FF,,7,0.668115,,,,,,,,,,,,,,,,,,,,,,,,,,,,,,,,,,26,77,1,0,0,response1disk,1,95,12,10,1,0,0,rectangle,12,10,1,0,0,6,7,"[312,215,121,119,109,61,81,143,192,35,154,187,257,158,183,169,277,226,284,237]",12,10,1,0,0,0,94,94,151,1,,,,,,,,,,,,,,,,,,,,,,,
,,,,,,,,,,,,,,,,,,,,,,,,,,,,,,,,,,,,,,,,,,,5d7d0cc0e32539001a174642,5fe192c7df8451428fad09fd,2020-12-22_07h31.57.817,FlowerSimilarity_Experiment,2020.1.2,Win32,60,5fe17d4a51f3a9c1a60f9869,,,,,,,,,,,,,,,,,,,3,PF,,0,0.93283,,,,,,,,,,,,,,,,,,,,,,,,,,,,,,,,,,-32,70,1,0,0,response7disk,9,96,1,7,1,0,0,rectangle,1,7,1,0,0,6,7,"[312,215,121,119,109,61,81,143,192,35,154,187,257,158,183,169,277,226,284,237]",1,7,1,0,0,0,95,95,79,1,,,,,,,,,,,,,,,,,,,,,,,
,,,,,,,,,,,,,,,,,,,,,,,,,,,,,,,,,,,,,,,,,,,5d7d0cc0e32539001a174642,5fe192c7df8451428fad09fd,2020-12-22_07h31.57.817,FlowerSimilarity_Experiment,2020.1.2,Win32,60,5fe17d4a51f3a9c1a60f9869,,,,,,,,,,,,,,,,,,,2,PF,,0,0.988325,,,,,,,,,,,,,,,,,,,,,,,,,,,,,,,,,,-33,78,1,0,0,response7disk,5,97,-9,12,1,0,0,rectangle,-9,12,1,0,0,6,1,"[312,215,121,119,109,61,81,143,192,35,154,187,257,158,183,169,277,226,284,237]",-9,12,1,0,0,0,96,96,147,1,,,,,,,,,,,,,,,,,,,,,,,
,,,,,,,,,,,,,,,,,,,,,,,,,,,,,,,,,,,,,,,,,,,5d7d0cc0e32539001a174642,5fe192c7df8451428fad09fd,2020-12-22_07h31.57.817,FlowerSimilarity_Experiment,2020.1.2,Win32,60,5fe17d4a51f3a9c1a60f9869,,,,,,,,,,,,,,,,,,,8,FF,,2,1.0441,,,,,,,,,,,,,,,,,,,,,,,,,,,,,,,,,,-47,-27,1,0,0,response5disk,7,98,6,-1,1,0,0,rectangle,6,-1,1,0,0,6,6,"[312,215,121,119,109,61,81,143,192,35,154,187,257,158,183,169,277,226,284,237]",6,-1,1,0,0,0,97,97,86,1,,,,,,,,,,,,,,,,,,,,,,,
,,,,,,,,,,,,,,,,,,,,,,,,,,,,,,,,,,,,,,,,,,,5d7d0cc0e32539001a174642,5fe192c7df8451428fad09fd,2020-12-22_07h31.57.817,FlowerSimilarity_Experiment,2020.1.2,Win32,60,5fe17d4a51f3a9c1a60f9869,,,,,,,,,,,,,,,,,,,3,FF,,3,1.43355,,,,,,,,,,,,,,,,,,,,,,,,,,,,,,,,,,-35,-55,1,0,0,response5disk,4,99,8,-2,1,0,0,rectangle,8,-2,1,0,0,6,1,"[312,215,121,119,109,61,81,143,192,35,154,187,257,158,183,169,277,226,284,237]",8,-2,1,0,0,0,98,98,110,1,,,,,,,,,,,,,,,,,,,,,,,
,,,,,,,,,,,,,,,,,,,,,,,,,,,,,,,,,,,,,,,,,,,5d7d0cc0e32539001a174642,5fe192c7df8451428fad09fd,2020-12-22_07h31.57.817,FlowerSimilarity_Experiment,2020.1.2,Win32,60,5fe17d4a51f3a9c1a60f9869,,,,,,,,,,,,,,,,,,,8,PF,,0,0.61294,,,,,,,,,,,,,,,,,,,,,,,,,,,,,,,,,,-26,59,1,0,0,response7disk,6,100,2,0,1,0,0,rectangle,2,0,1,0,0,6,3,"[312,215,121,119,109,61,81,143,192,35,154,187,257,158,183,169,277,226,284,237]",2,0,1,0,0,0,99,99,161,1,,,,,,,,,,,,,,,,,,,,,,,
,,,,,,,,,,,,,,,,,,,,,,,,,,,,,,,,,,,,,,,,,,,5d7d0cc0e32539001a174642,5fe192c7df8451428fad09fd,2020-12-22_07h31.57.817,FlowerSimilarity_Experiment,2020.1.2,Win32,60,5fe17d4a51f3a9c1a60f9869,,,,,,,,,,,,,,,,,,,5,PF,,0,0.668745,,,,,,,,,,,,,,,,,,,,,,,,,,,,,,,,,,-26,75,1,0,0,response7disk,4,101,9,2,1,0,0,rectangle,9,2,1,0,0,6,2,"[312,215,121,119,109,61,81,143,192,35,154,187,257,158,183,169,277,226,284,237]",9,2,1,0,0,0,100,100,54,1,,,,,,,,,,,,,,,,,,,,,,,
,,,,,,,,,,,,,,,,,,,,,,,,,,,,,,,,,,,,,,,,,,,5d7d0cc0e32539001a174642,5fe192c7df8451428fad09fd,2020-12-22_07h31.57.817,FlowerSimilarity_Experiment,2020.1.2,Win32,60,5fe17d4a51f3a9c1a60f9869,,,,,,,,,,,,,,,,,,,2,PF,,2,1.65599,,,,,,,,,,,,,,,,,,,,,,,,,,,,,,,,,,-71,-31,1,0,0,response5disk,4,102,2,-6,1,0,0,rectangle,2,-6,1,0,0,6,4,"[312,215,121,119,109,61,81,143,192,35,154,187,257,158,183,169,277,226,284,237]",2,-6,1,0,0,0,101,101,127,1,,,,,,,,,,,,,,,,,,,,,,,
,,,,,,,,,,,,,,,,,,,,,,,,,,,,,,,,,,,,,,,,,,,5d7d0cc0e32539001a174642,5fe192c7df8451428fad09fd,2020-12-22_07h31.57.817,FlowerSimilarity_Experiment,2020.1.2,Win32,60,5fe17d4a51f3a9c1a60f9869,,,,,,,,,,,,,,,,,,,3,FF,,0,0.86324,,,,,,,,,,,,,,,,,,,,,,,,,,,,,,,,,,-44,84,1,0,0,response7disk,6,103,-14,7,1,0,0,rectangle,-14,7,1,0,0,6,0,"[312,215,121,119,109,61,81,143,192,35,154,187,257,158,183,169,277,226,284,237]",-14,7,1,0,0,0,102,102,95,1,,,,,,,,,,,,,,,,,,,,,,,
,,,,,,,,,,,,,,,,,,,,,,,,,,,,,,,,,,,,,,,,,,,5d7d0cc0e32539001a174642,5fe192c7df8451428fad09fd,2020-12-22_07h31.57.817,FlowerSimilarity_Experiment,2020.1.2,Win32,60,5fe17d4a51f3a9c1a60f9869,,,,,,,,,,,,,,,,,,,1,FF,,0,0.50152,,,,,,,,,,,,,,,,,,,,,,,,,,,,,,,,,,-42,75,1,0,0,response7disk,3,104,6,-13,1,0,0,rectangle,6,-13,1,0,0,6,1,"[312,215,121,119,109,61,81,143,192,35,154,187,257,158,183,169,277,226,284,237]",6,-13,1,0,0,0,103,103,99,1,,,,,,,,,,,,,,,,,,,,,,,
,,,,,,,,,,,,,,,,,,,,,,,,,,,,,,,,,,,,,,,,,,,5d7d0cc0e32539001a174642,5fe192c7df8451428fad09fd,2020-12-22_07h31.57.817,FlowerSimilarity_Experiment,2020.1.2,Win32,60,5fe17d4a51f3a9c1a60f9869,,,,,,,,,,,,,,,,,,,2,PF,,1,0.988475,,,,,,,,,,,,,,,,,,,,,,,,,,,,,,,,,,-68,28,1,0,0,response7disk,2,105,1,-6,1,0,0,rectangle,1,-6,1,0,0,6,6,"[312,215,121,119,109,61,81,143,192,35,154,187,257,158,183,169,277,226,284,237]",1,-6,1,0,0,0,104,104,14,1,,,,,,,,,,,,,,,,,,,,,,,
,,,,,,,,,,,,,,,,,,,,,,,,,,,,,,,,,,,,,,,,,,,5d7d0cc0e32539001a174642,5fe192c7df8451428fad09fd,2020-12-22_07h31.57.817,FlowerSimilarity_Experiment,2020.1.2,Win32,60,5fe17d4a51f3a9c1a60f9869,,,,,,,,,,,,,,,,,,,9,FF,,0,0.77999,,,,,,,,,,,,,,,,,,,,,,,,,,,,,,,,,,-59,72,1,0,0,response7disk,8,106,-25,3,1,0,0,rectangle,-25,3,1,0,0,6,1,"[312,215,121,119,109,61,81,143,192,35,154,187,257,158,183,169,277,226,284,237]",-25,3,1,0,0,0,105,105,6,1,,,,,,,,,,,,,,,,,,,,,,,
,,,,,,,,,,,,,,,,,,,,,,,,,,,,,,,,,,,,,,,,,,,5d7d0cc0e32539001a174642,5fe192c7df8451428fad09fd,2020-12-22_07h31.57.817,FlowerSimilarity_Experiment,2020.1.2,Win32,60,5fe17d4a51f3a9c1a60f9869,,,,,,,,,,,,,,,,,,,4,FF,,3,1.12753,,,,,,,,,,,,,,,,,,,,,,,,,,,,,,,,,,-29,-50,1,0,0,response5disk,7,107,7,-6,1,0,0,rectangle,7,-6,1,0,0,6,3,"[312,215,121,119,109,61,81,143,192,35,154,187,257,158,183,169,277,226,284,237]",7,-6,1,0,0,0,106,106,87,1,,,,,,,,,,,,,,,,,,,,,,,
,,,,,,,,,,,,,,,,,,,,,,,,,,,,,,,,,,,,,,,,,,,5d7d0cc0e32539001a174642,5fe192c7df8451428fad09fd,2020-12-22_07h31.57.817,FlowerSimilarity_Experiment,2020.1.2,Win32,60,5fe17d4a51f3a9c1a60f9869,,,,,,,,,,,,,,,,,,,1,FF,,0,0.724465,,,,,,,,,,,,,,,,,,,,,,,,,,,,,,,,,,-24,90,1,0,0,response7disk,4,108,-4,13,1,0,0,rectangle,-4,13,1,0,0,6,0,"[312,215,121,119,109,61,81,143,192,35,154,187,257,158,183,169,277,226,284,237]",-4,13,1,0,0,0,107,107,135,1,,,,,,,,,,,,,,,,,,,,,,,
,,,,,,,,,,,,,,,,,,,,,,,,,,,,,,,,,,,,,,,,,,,5d7d0cc0e32539001a174642,5fe192c7df8451428fad09fd,2020-12-22_07h31.57.817,FlowerSimilarity_Experiment,2020.1.2,Win32,60,5fe17d4a51f3a9c1a60f9869,,,,,,,,,,,,,,,,,,,5,PF,,7,0.96071,,,,,,,,,,,,,,,,,,,,,,,,,,,,,,,,,,34,80,1,0,0,response1disk,5,109,6,-5,1,0,0,rectangle,40,-110,1,0,0,4,4,"[312,215,121,119,109,61,81,143,192,35,154,187,257,158,183,169,277,226,284,237]",-8,-4,1,0,0,0,108,108,94,1,response3disk_3,rectangle,,,,,,,,,,,,,,,,,,,,,
,,,,,,,,,,,,,,,,,,,,,,,,,,,,,,,,,,,,,,,,,,,5d7d0cc0e32539001a174642,5fe192c7df8451428fad09fd,2020-12-22_07h31.57.817,FlowerSimilarity_Experiment,2020.1.2,Win32,60,5fe17d4a51f3a9c1a60f9869,,,,,,,,,,,,,,,,,,,6,FF,,1,1.071975,,,,,,,,,,,,,,,,,,,,,,,,,,,,,,,,,,-65,26,1,0,0,response7disk,5,110,2,-11,1,0,0,rectangle,2,-11,1,0,0,4,5,"[312,215,121,119,109,61,81,143,192,35,154,187,257,158,183,169,277,226,284,237]",2,-11,1,0,0,0,109,109,126,1,,,,,,,,,,,,,,,,,,,,,,,
,,,,,,,,,,,,,,,,,,,,,,,,,,,,,,,,,,,,,,,,,,,5d7d0cc0e32539001a174642,5fe192c7df8451428fad09fd,2020-12-22_07h31.57.817,FlowerSimilarity_Experiment,2020.1.2,Win32,60,5fe17d4a51f3a9c1a60f9869,,,,,,,,,,,,,,,,,,,1,PF,,1,1.016135,,,,,,,,,,,,,,,,,,,,,,,,,,,,,,,,,,-76,27,1,0,0,response7disk,6,111,5,-11,1,0,0,rectangle,5,-11,1,0,0,4,0,"[312,215,121,119,109,61,81,143,192,35,154,187,257,158,183,169,277,226,284,237]",5,-11,1,0,0,0,110,110,144,1,,,,,,,,,,,,,,,,,,,,,,,
,,,,,,,,,,,,,,,,,,,,,,,,,,,,,,,,,,,,,,,,,,,5d7d0cc0e32539001a174642,5fe192c7df8451428fad09fd,2020-12-22_07h31.57.817,FlowerSimilarity_Experiment,2020.1.2,Win32,60,5fe17d4a51f3a9c1a60f9869,,,,,,,,,,,,,,,,,,,4,PF,,0,0.58511,,,,,,,,,,,,,,,,,,,,,,,,,,,,,,,,,,-31,68,1,0,0,response7disk,8,112,-2,-3,1,0,0,rectangle,-2,-3,1,0,0,4,1,"[312,215,121,119,109,61,81,143,192,35,154,187,257,158,183,169,277,226,284,237]",-2,-3,1,0,0,0,111,111,124,1,,,,,,,,,,,,,,,,,,,,,,,
,,,,,,,,,,,,,,,,,,,,,,,,,,,,,,,,,,,,,,,,,,,5d7d0cc0e32539001a174642,5fe192c7df8451428fad09fd,2020-12-22_07h31.57.817,FlowerSimilarity_Experiment,2020.1.2,Win32,60,5fe17d4a51f3a9c1a60f9869,,,,,,,,,,,,,,,,,,,9,PF,,3,0.86322,,,,,,,,,,,,,,,,,,,,,,,,,,,,,,,,,,-35,-47,1,0,0,response5disk,1,113,-5,-5,1,0,0,rectangle,-5,-5,1,0,0,4,1,"[312,215,121,119,109,61,81,143,192,35,154,187,257,158,183,169,277,226,284,237]",-5,-5,1,0,0,0,112,112,74,1,,,,,,,,,,,,,,,,,,,,,,,
,,,,,,,,,,,,,,,,,,,,,,,,,,,,,,,,,,,,,,,,,,,5d7d0cc0e32539001a174642,5fe192c7df8451428fad09fd,2020-12-22_07h31.57.817,FlowerSimilarity_Experiment,2020.1.2,Win32,60,5fe17d4a51f3a9c1a60f9869,,,,,,,,,,,,,,,,,,,9,FF,,3,0.849705,,,,,,,,,,,,,,,,,,,,,,,,,,,,,,,,,,-25,-64,1,0,0,response5disk,1,114,-11,-12,1,0,0,rectangle,-11,-12,1,0,0,4,5,"[312,215,121,119,109,61,81,143,192,35,154,187,257,158,183,169,277,226,284,237]",-11,-12,1,0,0,0,113,113,111,1,,,,,,,,,,,,,,,,,,,,,,,
,,,,,,,,,,,,,,,,,,,,,,,,,,,,,,,,,,,,,,,,,,,5d7d0cc0e32539001a174642,5fe192c7df8451428fad09fd,2020-12-22_07h31.57.817,FlowerSimilarity_Experiment,2020.1.2,Win32,60,5fe17d4a51f3a9c1a60f9869,,,,,,,,,,,,,,,,,,,7,FF,,0,0.626445,,,,,,,,,,,,,,,,,,,,,,,,,,,,,,,,,,-32,60,1,0,0,response7disk,6,115,3,-9,1,0,0,rectangle,3,-9,1,0,0,4,0,"[312,215,121,119,109,61,81,143,192,35,154,187,257,158,183,169,277,226,284,237]",3,-9,1,0,0,0,114,114,31,1,,,,,,,,,,,,,,,,,,,,,,,
,,,,,,,,,,,,,,,,,,,,,,,,,,,,,,,,,,,,,,,,,,,5d7d0cc0e32539001a174642,5fe192c7df8451428fad09fd,2020-12-22_07h31.57.817,FlowerSimilarity_Experiment,2020.1.2,Win32,60,5fe17d4a51f3a9c1a60f9869,,,,,,,,,,,,,,,,,,,8,FF,,1,1.14144,,,,,,,,,,,,,,,,,,,,,,,,,,,,,,,,,,-76,40,1,0,0,response7disk,3,116,-5,-8,1,0,0,rectangle,-5,-8,1,0,0,4,6,"[312,215,121,119,109,61,81,143,192,35,154,187,257,158,183,169,277,226,284,237]",-5,-8,1,0,0,0,115,115,154,1,,,,,,,,,,,,,,,,,,,,,,,
,,,,,,,,,,,,,,,,,,,,,,,,,,,,,,,,,,,,,,,,,,,5d7d0cc0e32539001a174642,5fe192c7df8451428fad09fd,2020-12-22_07h31.57.817,FlowerSimilarity_Experiment,2020.1.2,Win32,60,5fe17d4a51f3a9c1a60f9869,,,,,,,,,,,,,,,,,,,3,PF,,0,0.682505,,,,,,,,,,,,,,,,,,,,,,,,,,,,,,,,,,-32,44,1,0,0,response7disk,8,117,-6,5,1,0,0,rectangle,-6,5,1,0,0,4,6,"[312,215,121,119,109,61,81,143,192,35,154,187,257,158,183,169,277,226,284,237]",-6,5,1,0,0,0,116,116,3,1,,,,,,,,,,,,,,,,,,,,,,,
,,,,,,,,,,,,,,,,,,,,,,,,,,,,,,,,,,,,,,,,,,,5d7d0cc0e32539001a174642,5fe192c7df8451428fad09fd,2020-12-22_07h31.57.817,FlowerSimilarity_Experiment,2020.1.2,Win32,60,5fe17d4a51f3a9c1a60f9869,,,,,,,,,,,,,,,,,,,2,FF,,0,0.58515,,,,,,,,,,,,,,,,,,,,,,,,,,,,,,,,,,-37,82,1,0,0,response7disk,1,118,-17,16,1,0,0,rectangle,-17,16,1,0,0,4,3,"[312,215,121,119,109,61,81,143,192,35,154,187,257,158,183,169,277,226,284,237]",-17,16,1,0,0,0,117,117,85,1,,,,,,,,,,,,,,,,,,,,,,,
,,,,,,,,,,,,,,,,,,,,,,,,,,,,,,,,,,,,,,,,,,,5d7d0cc0e32539001a174642,5fe192c7df8451428fad09fd,2020-12-22_07h31.57.817,FlowerSimilarity_Experiment,2020.1.2,Win32,60,5fe17d4a51f3a9c1a60f9869,,,,,,,,,,,,,,,,,,,8,FF,,0,0.69568,,,,,,,,,,,,,,,,,,,,,,,,,,,,,,,,,,-36,71,1,0,0,response7disk,1,119,-1,-5,1,0,0,rectangle,57,-124,1,0,0,4,4,"[312,215,121,119,109,61,81,143,192,35,154,187,257,158,183,169,277,226,284,237]",18,-10,1,0,0,0,118,118,20,1,response3disk_3,rectangle,,,,,,,,,,,,,,,,,,,,,
,,,,,,,,,,,,,,,,,,,,,,,,,,,,,,,,,,,,,,,,,,,5d7d0cc0e32539001a174642,5fe192c7df8451428fad09fd,2020-12-22_07h31.57.817,FlowerSimilarity_Experiment,2020.1.2,Win32,60,5fe17d4a51f3a9c1a60f9869,,,,,,,,,,,,,,,,,,,8,PF,,0,0.765935,,,,,,,,,,,,,,,,,,,,,,,,,,,,,,,,,,-35,68,1,0,0,response7disk,9,120,11,5,1,0,0,rectangle,11,5,1,0,0,4,0,"[312,215,121,119,109,61,81,143,192,35,154,187,257,158,183,169,277,226,284,237]",11,5,1,0,0,0,119,119,42,1,,,,,,,,,,,,,,,,,,,,,,,
,,,,,,,,,,,,,,,,,,,,,,,,,,,,,,,,,,,,,,,,,,,5d7d0cc0e32539001a174642,5fe192c7df8451428fad09fd,2020-12-22_07h31.57.817,FlowerSimilarity_Experiment,2020.1.2,Win32,60,5fe17d4a51f3a9c1a60f9869,,,,,,,,,,,,,,,,,,,9,PF,,0,1.14166,,,,,,,,,,,,,,,,,,,,,,,,,,,,,,,,,,-33,57,1,0,0,response7disk,4,121,8,-3,1,0,0,rectangle,94,-48,1,0,0,5,5,"[312,215,121,119,109,61,81,143,192,35,154,187,257,158,183,169,277,226,284,237]",19,-7,1,0,0,0,120,120,114,1,response3disk_3,rectangle,,,,,,,,,,,,,,,,,,,,,
,,,,,,,,,,,,,,,,,,,,,,,,,,,,,,,,,,,,,,,,,,,5d7d0cc0e32539001a174642,5fe192c7df8451428fad09fd,2020-12-22_07h31.57.817,FlowerSimilarity_Experiment,2020.1.2,Win32,60,5fe17d4a51f3a9c1a60f9869,,,,,,,,,,,,,,,,,,,8,PF,,7,0.89102,,,,,,,,,,,,,,,,,,,,,,,,,,,,,,,,,,40,73,1,0,0,response1disk,8,122,22,-8,1,0,0,rectangle,22,-8,1,0,0,5,4,"[312,215,121,119,109,61,81,143,192,35,154,187,257,158,183,169,277,226,284,237]",22,-8,1,0,0,0,121,121,153,1,,,,,,,,,,,,,,,,,,,,,,,
,,,,,,,,,,,,,,,,,,,,,,,,,,,,,,,,,,,,,,,,,,,5d7d0cc0e32539001a174642,5fe192c7df8451428fad09fd,2020-12-22_07h31.57.817,FlowerSimilarity_Experiment,2020.1.2,Win32,60,5fe17d4a51f3a9c1a60f9869,,,,,,,,,,,,,,,,,,,1,PF,,1,1.01641,,,,,,,,,,,,,,,,,,,,,,,,,,,,,,,,,,-50,30,1,0,0,response7disk,5,123,11,-1,1,0,0,rectangle,11,-1,1,0,0,5,3,"[312,215,121,119,109,61,81,143,192,35,154,187,257,158,183,169,277,226,284,237]",11,-1,1,0,0,0,122,122,28,1,,,,,,,,,,,,,,,,,,,,,,,
,,,,,,,,,,,,,,,,,,,,,,,,,,,,,,,,,,,,,,,,,,,5d7d0cc0e32539001a174642,5fe192c7df8451428fad09fd,2020-12-22_07h31.57.817,FlowerSimilarity_Experiment,2020.1.2,Win32,60,5fe17d4a51f3a9c1a60f9869,,,,,,,,,,,,,,,,,,,9,PF,,0,0.57138,,,,,,,,,,,,,,,,,,,,,,,,,,,,,,,,,,-31,77,1,0,0,response7disk,3,124,11,9,1,0,0,rectangle,11,9,1,0,0,5,2,"[312,215,121,119,109,61,81,143,192,35,154,187,257,158,183,169,277,226,284,237]",11,9,1,0,0,0,123,123,119,1,,,,,,,,,,,,,,,,,,,,,,,
,,,,,,,,,,,,,,,,,,,,,,,,,,,,,,,,,,,,,,,,,,,5d7d0cc0e32539001a174642,5fe192c7df8451428fad09fd,2020-12-22_07h31.57.817,FlowerSimilarity_Experiment,2020.1.2,Win32,60,5fe17d4a51f3a9c1a60f9869,,,,,,,,,,,,,,,,,,,6,PF,,0,0.672255,,,,,,,,,,,,,,,,,,,,,,,,,,,,,,,,,,-36,65,1,0,0,response7disk,7,125,3,-6,1,0,0,rectangle,3,-6,1,0,0,5,0,"[312,215,121,119,109,61,81,143,192,35,154,187,257,158,183,169,277,226,284,237]",3,-6,1,0,0,0,124,124,50,1,,,,,,,,,,,,,,,,,,,,,,,
,,,,,,,,,,,,,,,,,,,,,,,,,,,,,,,,,,,,,,,,,,,5d7d0cc0e32539001a174642,5fe192c7df8451428fad09fd,2020-12-22_07h31.57.817,FlowerSimilarity_Experiment,2020.1.2,Win32,60,5fe17d4a51f3a9c1a60f9869,,,,,,,,,,,,,,,,,,,9,FF,,1,1.044515,,,,,,,,,,,,,,,,,,,,,,,,,,,,,,,,,,-57,35,1,0,0,response7disk,2,126,6,-4,1,0,0,rectangle,6,-4,1,0,0,5,5,"[312,215,121,119,109,61,81,143,192,35,154,187,257,158,183,169,277,226,284,237]",6,-4,1,0,0,0,125,125,11,1,,,,,,,,,,,,,,,,,,,,,,,
,,,,,,,,,,,,,,,,,,,,,,,,,,,,,,,,,,,,,,,,,,,5d7d0cc0e32539001a174642,5fe192c7df8451428fad09fd,2020-12-22_07h31.57.817,FlowerSimilarity_Experiment,2020.1.2,Win32,60,5fe17d4a51f3a9c1a60f9869,,,,,,,,,,,,,,,,,,,6,FF,,0,0.571505,,,,,,,,,,,,,,,,,,,,,,,,,,,,,,,,,,-36,71,1,0,0,response7disk,7,127,6,2,1,0,0,rectangle,6,2,1,0,0,5,6,"[312,215,121,119,109,61,81,143,192,35,154,187,257,158,183,169,277,226,284,237]",6,2,1,0,0,0,126,126,18,1,,,,,,,,,,,,,,,,,,,,,,,
,,,,,,,,,,,,,,,,,,,,,,,,,,,,,,,,,,,,,,,,,,,5d7d0cc0e32539001a174642,5fe192c7df8451428fad09fd,2020-12-22_07h31.57.817,FlowerSimilarity_Experiment,2020.1.2,Win32,60,5fe17d4a51f3a9c1a60f9869,,,,,,,,,,,,,,,,,,,2,PF,,0,0.71045,,,,,,,,,,,,,,,,,,,,,,,,,,,,,,,,,,-32,76,1,0,0,response7disk,1,128,-14,4,1,0,0,rectangle,-14,4,1,0,0,5,7,"[312,215,121,119,109,61,81,143,192,35,154,187,257,158,183,169,277,226,284,237]",-14,4,1,0,0,0,127,127,9,1,,,,,,,,,,,,,,,,,,,,,,,
,,,,,,,,,,,,,,,,,,,,,,,,,,,,,,,,,,,,,,,,,,,5d7d0cc0e32539001a174642,5fe192c7df8451428fad09fd,2020-12-22_07h31.57.817,FlowerSimilarity_Experiment,2020.1.2,Win32,60,5fe17d4a51f3a9c1a60f9869,,,,,,,,,,,,,,,,,,,4,PF,,1,0.84937,,,,,,,,,,,,,,,,,,,,,,,,,,,,,,,,,,-68,32,1,0,0,response7disk,7,129,8,-12,1,0,0,rectangle,8,-12,1,0,0,5,3,"[312,215,121,119,109,61,81,143,192,35,154,187,257,158,183,169,277,226,284,237]",8,-12,1,0,0,0,128,128,38,1,,,,,,,,,,,,,,,,,,,,,,,
,,,,,,,,,,,,,,,,,,,,,,,,,,,,,,,,,,,,,,,,,,,5d7d0cc0e32539001a174642,5fe192c7df8451428fad09fd,2020-12-22_07h31.57.817,FlowerSimilarity_Experiment,2020.1.2,Win32,60,5fe17d4a51f3a9c1a60f9869,,,,,,,,,,,,,,,,,,,9,PF,,0,0.61263,,,,,,,,,,,,,,,,,,,,,,,,,,,,,,,,,,-39,73,1,0,0,response7disk,7,130,4,-1,1,0,0,rectangle,4,-1,1,0,0,5,2,"[312,215,121,119,109,61,81,143,192,35,154,187,257,158,183,169,277,226,284,237]",4,-1,1,0,0,0,129,129,121,1,,,,,,,,,,,,,,,,,,,,,,,
,,,,,,,,,,,,,,,,,,,,,,,,,,,,,,,,,,,,,,,,,,,5d7d0cc0e32539001a174642,5fe192c7df8451428fad09fd,2020-12-22_07h31.57.817,FlowerSimilarity_Experiment,2020.1.2,Win32,60,5fe17d4a51f3a9c1a60f9869,,,,,,,,,,,,,,,,,,,3,PF,,2,0.905215,,,,,,,,,,,,,,,,,,,,,,,,,,,,,,,,,,-83,-32,1,0,0,response5disk,2,131,8,-13,1,0,0,rectangle,8,-13,1,0,0,5,2,"[312,215,121,119,109,61,81,143,192,35,154,187,257,158,183,169,277,226,284,237]",8,-13,1,0,0,0,130,130,36,1,,,,,,,,,,,,,,,,,,,,,,,
,,,,,,,,,,,,,,,,,,,,,,,,,,,,,,,,,,,,,,,,,,,5d7d0cc0e32539001a174642,5fe192c7df8451428fad09fd,2020-12-22_07h31.57.817,FlowerSimilarity_Experiment,2020.1.2,Win32,60,5fe17d4a51f3a9c1a60f9869,,,,,,,,,,,,,,,,,,,2,FF,,3,0.847875,,,,,,,,,,,,,,,,,,,,,,,,,,,,,,,,,,-45,-64,1,0,0,response5disk,4,132,2,9,1,0,0,rectangle,2,9,1,0,0,5,1,"[312,215,121,119,109,61,81,143,192,35,154,187,257,158,183,169,277,226,284,237]",2,9,1,0,0,0,131,131,145,1,,,,,,,,,,,,,,,,,,,,,,,
,,,,,,,,,,,,,,,,,,,,,,,,,,,,,,,,,,,,,,,,,,,5d7d0cc0e32539001a174642,5fe192c7df8451428fad09fd,2020-12-22_07h31.57.817,FlowerSimilarity_Experiment,2020.1.2,Win32,60,5fe17d4a51f3a9c1a60f9869,,,,,,,,,,,,,,,,,,,1,FF,,0,0.59932,,,,,,,,,,,,,,,,,,,,,,,,,,,,,,,,,,-41,86,1,0,0,response7disk,5,133,3,7,1,0,0,rectangle,3,7,1,0,0,5,3,"[312,215,121,119,109,61,81,143,192,35,154,187,257,158,183,169,277,226,284,237]",3,7,1,0,0,0,132,132,82,1,,,,,,,,,,,,,,,,,,,,,,,
,,,,,,,,,,,,,,,,,,,,,,,,,,,,,,,,,,,,,,,,,,,5d7d0cc0e32539001a174642,5fe192c7df8451428fad09fd,2020-12-22_07h31.57.817,FlowerSimilarity_Experiment,2020.1.2,Win32,60,5fe17d4a51f3a9c1a60f9869,,,,,,,,,,,,,,,,,,,5,FF,,3,1.781035,,,,,,,,,,,,,,,,,,,,,,,,,,,,,,,,,,-23,-65,1,0,0,response5disk,2,134,4,4,1,0,0,rectangle,4,4,1,0,0,5,1,"[312,215,121,119,109,61,81,143,192,35,154,187,257,158,183,169,277,226,284,237]",4,4,1,0,0,0,133,133,55,1,,,,,,,,,,,,,,,,,,,,,,,
,,,,,,,,,,,,,,,,,,,,,,,,,,,,,,,,,,,,,,,,,,,5d7d0cc0e32539001a174642,5fe192c7df8451428fad09fd,2020-12-22_07h31.57.817,FlowerSimilarity_Experiment,2020.1.2,Win32,60,5fe17d4a51f3a9c1a60f9869,,,,,,,,,,,,,,,,,,,3,PF,,7,0.807285,,,,,,,,,,,,,,,,,,,,,,,,,,,,,,,,,,49,93,1,0,0,response1disk,3,135,10,-6,1,0,0,rectangle,10,-6,1,0,0,5,4,"[312,215,121,119,109,61,81,143,192,35,154,187,257,158,183,169,277,226,284,237]",10,-6,1,0,0,0,134,134,4,1,,,,,,,,,,,,,,,,,,,,,,,
,,,,,,,,,,,,,,,,,,,,,,,,,,,,,,,,,,,,,,,,,,,5d7d0cc0e32539001a174642,5fe192c7df8451428fad09fd,2020-12-22_07h31.57.817,FlowerSimilarity_Experiment,2020.1.2,Win32,60,5fe17d4a51f3a9c1a60f9869,,,,,,,,,,,,,,,,,,,6,FF,,0,1.113615,,,,,,,,,,,,,,,,,,,,,,,,,,,,,,,,,,-56,78,1,0,0,response7disk,3,136,11,-14,1,0,0,rectangle,11,-14,1,0,0,5,3,"[312,215,121,119,109,61,81,143,192,35,154,187,257,158,183,169,277,226,284,237]",11,-14,1,0,0,0,135,135,21,1,,,,,,,,,,,,,,,,,,,,,,,
,,,,,,,,,,,,,,,,,,,,,,,,,,,,,,,,,,,,,,,,,,,5d7d0cc0e32539001a174642,5fe192c7df8451428fad09fd,2020-12-22_07h31.57.817,FlowerSimilarity_Experiment,2020.1.2,Win32,60,5fe17d4a51f3a9c1a60f9869,,,,,,,,,,,,,,,,,,,6,PF,,5,1.391685,,,,,,,,,,,,,,,,,,,,,,,,,,,,,,,,,,63,-36,1,0,0,response3disk,9,137,1,-10,1,0,0,rectangle,1,-10,1,0,0,5,6,"[312,215,121,119,109,61,81,143,192,35,154,187,257,158,183,169,277,226,284,237]",1,-10,1,0,0,0,136,136,45,1,,,,,,,,,,,,,,,,,,,,,,,
,,,,,,,,,,,,,,,,,,,,,,,,,,,,,,,,,,,,,,,,,,,5d7d0cc0e32539001a174642,5fe192c7df8451428fad09fd,2020-12-22_07h31.57.817,FlowerSimilarity_Experiment,2020.1.2,Win32,60,5fe17d4a51f3a9c1a60f9869,,,,,,,,,,,,,,,,,,,5,FF,,7,0.779215,,,,,,,,,,,,,,,,,,,,,,,,,,,,,,,,,,45,77,1,0,0,response1disk,5,138,-10,-16,1,0,0,rectangle,-10,-16,1,0,0,5,1,"[312,215,121,119,109,61,81,143,192,35,154,187,257,158,183,169,277,226,284,237]",-10,-16,1,0,0,0,137,137,19,1,,,,,,,,,,,,,,,,,,,,,,,
,,,,,,,,,,,,,,,,,,,,,,,,,,,,,,,,,,,,,,,,,,,5d7d0cc0e32539001a174642,5fe192c7df8451428fad09fd,2020-12-22_07h31.57.817,FlowerSimilarity_Experiment,2020.1.2,Win32,60,5fe17d4a51f3a9c1a60f9869,,,,,,,,,,,,,,,,,,,5,FF,,2,1.224165,,,,,,,,,,,,,,,,,,,,,,,,,,,,,,,,,,-66,-25,1,0,0,response5disk,4,139,7,-7,1,0,0,rectangle,7,-7,1,0,0,5,1,"[312,215,121,119,109,61,81,143,192,35,154,187,257,158,183,169,277,226,284,237]",7,-7,1,0,0,0,138,138,8,1,,,,,,,,,,,,,,,,,,,,,,,
,,,,,,,,,,,,,,,,,,,,,,,,,,,,,,,,,,,,,,,,,,,5d7d0cc0e32539001a174642,5fe192c7df8451428fad09fd,2020-12-22_07h31.57.817,FlowerSimilarity_Experiment,2020.1.2,Win32,60,5fe17d4a51f3a9c1a60f9869,,,,,,,,,,,,,,,,,,,5,PF,,1,1.322565,,,,,,,,,,,,,,,,,,,,,,,,,,,,,,,,,,-92,39,1,0,0,response7disk,3,140,11,-12,1,0,0,rectangle,11,-12,1,0,0,5,6,"[312,215,121,119,109,61,81,143,192,35,154,187,257,158,183,169,277,226,284,237]",11,-12,1,0,0,0,139,139,109,1,,,,,,,,,,,,,,,,,,,,,,,
,,,,,,,,,,,,,,,,,,,,,,,,,,,,,,,,,,,,,,,,,,,5d7d0cc0e32539001a174642,5fe192c7df8451428fad09fd,2020-12-22_07h31.57.817,FlowerSimilarity_Experiment,2020.1.2,Win32,60,5fe17d4a51f3a9c1a60f9869,,,,,,,,,,,,,,,,,,,2,PF,,0,0.82148,,,,,,,,,,,,,,,,,,,,,,,,,,,,,,,,,,-52,86,1,0,0,response7disk,8,141,-18,13,1,0,0,rectangle,-18,13,1,0,0,5,1,"[312,215,121,119,109,61,81,143,192,35,154,187,257,158,183,169,277,226,284,237]",-18,13,1,0,0,0,140,140,52,1,,,,,,,,,,,,,,,,,,,,,,,
,,,,,,,,,,,,,,,,,,,,,,,,,,,,,,,,,,,,,,,,,,,5d7d0cc0e32539001a174642,5fe192c7df8451428fad09fd,2020-12-22_07h31.57.817,FlowerSimilarity_Experiment,2020.1.2,Win32,60,5fe17d4a51f3a9c1a60f9869,,,,,,,,,,,,,,,,,,,9,FF,,0,0.529045,,,,,,,,,,,,,,,,,,,,,,,,,,,,,,,,,,-25,65,1,0,0,response7disk,3,142,7,-6,1,0,0,rectangle,7,-6,1,0,0,5,3,"[312,215,121,119,109,61,81,143,192,35,154,187,257,158,183,169,277,226,284,237]",7,-6,1,0,0,0,141,141,141,1,,,,,,,,,,,,,,,,,,,,,,,
,,,,,,,,,,,,,,,,,,,,,,,,,,,,,,,,,,,,,,,,,,,5d7d0cc0e32539001a174642,5fe192c7df8451428fad09fd,2020-12-22_07h31.57.817,FlowerSimilarity_Experiment,2020.1.2,Win32,60,5fe17d4a51f3a9c1a60f9869,,,,,,,,,,,,,,,,,,,8,FF,,4,1.26663,,,,,,,,,,,,,,,,,,,,,,,,,,,,,,,,,,53,-74,1,0,0,response3disk,5,143,-3,-2,1,0,0,rectangle,124,-47,1,0,0,5,5,"[312,215,121,119,109,61,81,143,192,35,154,187,257,158,183,169,277,226,284,237]",19,-3,1,0,0,0,142,142,152,1,response3disk_3,rectangle,,,,,,,,,,,,,,,,,,,,,
,,,,,,,,,,,,,,,,,,,,,,,,,,,,,,,,,,,,,,,,,,,5d7d0cc0e32539001a174642,5fe192c7df8451428fad09fd,2020-12-22_07h31.57.817,FlowerSimilarity_Experiment,2020.1.2,Win32,60,5fe17d4a51f3a9c1a60f9869,,,,,,,,,,,,,,,,,,,8,PF,,0,0.58477,,,,,,,,,,,,,,,,,,,,,,,,,,,,,,,,,,-38,72,1,0,0,response7disk,1,144,26,-19,1,0,0,rectangle,26,-19,1,0,0,5,0,"[312,215,121,119,109,61,81,143,192,35,154,187,257,158,183,169,277,226,284,237]",26,-19,1,0,0,0,143,143,57,1,,,,,,,,,,,,,,,,,,,,,,,
,,,,,,,,,,,,,,,,,,,,,,,,,,,,,,,,,,,,,,,,,,,5d7d0cc0e32539001a174642,5fe192c7df8451428fad09fd,2020-12-22_07h31.57.817,FlowerSimilarity_Experiment,2020.1.2,Win32,60,5fe17d4a51f3a9c1a60f9869,,,,,,,,,,,,,,,,,,,8,FF,,7,0.82161,,,,,,,,,,,,,,,,,,,,,,,,,,,,,,,,,,57,81,1,0,0,response1disk,8,145,9,-3,1,0,0,rectangle,9,-3,1,0,0,5,0,"[312,215,121,119,109,61,81,143,192,35,154,187,257,158,183,169,277,226,284,237]",9,-3,1,0,0,0,144,144,48,1,,,,,,,,,,,,,,,,,,,,,,,
,,,,,,,,,,,,,,,,,,,,,,,,,,,,,,,,,,,,,,,,,,,5d7d0cc0e32539001a174642,5fe192c7df8451428fad09fd,2020-12-22_07h31.57.817,FlowerSimilarity_Experiment,2020.1.2,Win32,60,5fe17d4a51f3a9c1a60f9869,,,,,,,,,,,,,,,,,,,8,PF,,5,1.15536,,,,,,,,,,,,,,,,,,,,,,,,,,,,,,,,,,72,-40,1,0,0,response3disk,2,146,9,-7,1,0,0,rectangle,9,-7,1,0,0,5,6,"[312,215,121,119,109,61,81,143,192,35,154,187,257,158,183,169,277,226,284,237]",9,-7,1,0,0,0,145,145,83,1,,,,,,,,,,,,,,,,,,,,,,,
,,,,,,,,,,,,,,,,,,,,,,,,,,,,,,,,,,,,,,,,,,,5d7d0cc0e32539001a174642,5fe192c7df8451428fad09fd,2020-12-22_07h31.57.817,FlowerSimilarity_Experiment,2020.1.2,Win32,60,5fe17d4a51f3a9c1a60f9869,,,,,,,,,,,,,,,,,,,2,PF,,2,1.1972,,,,,,,,,,,,,,,,,,,,,,,,,,,,,,,,,,-55,-31,1,0,0,response5disk,3,147,-12,-15,1,0,0,rectangle,-12,-15,1,0,0,5,1,"[312,215,121,119,109,61,81,143,192,35,154,187,257,158,183,169,277,226,284,237]",-12,-15,1,0,0,0,146,146,69,1,,,,,,,,,,,,,,,,,,,,,,,
,,,,,,,,,,,,,,,,,,,,,,,,,,,,,,,,,,,,,,,,,,,5d7d0cc0e32539001a174642,5fe192c7df8451428fad09fd,2020-12-22_07h31.57.817,FlowerSimilarity_Experiment,2020.1.2,Win32,60,5fe17d4a51f3a9c1a60f9869,,,,,,,,,,,,,,,,,,,7,PF,,7,0.68205,,,,,,,,,,,,,,,,,,,,,,,,,,,,,,,,,,25,96,1,0,0,response1disk,7,148,13,18,1,0,0,rectangle,13,18,1,0,0,5,7,"[312,215,121,119,109,61,81,143,192,35,154,187,257,158,183,169,277,226,284,237]",13,18,1,0,0,0,147,147,51,1,,,,,,,,,,,,,,,,,,,,,,,
,,,,,,,,,,,,,,,,,,,,,,,,,,,,,,,,,,,,,,,,,,,5d7d0cc0e32539001a174642,5fe192c7df8451428fad09fd,2020-12-22_07h31.57.817,FlowerSimilarity_Experiment,2020.1.2,Win32,60,5fe17d4a51f3a9c1a60f9869,,,,,,,,,,,,,,,,,,,6,FF,,6,0.905215,,,,,,,,,,,,,,,,,,,,,,,,,,,,,,,,,,77,38,1,0,0,response1disk,9,149,16,10,1,0,0,rectangle,16,10,1,0,0,5,0,"[312,215,121,119,109,61,81,143,192,35,154,187,257,158,183,169,277,226,284,237]",16,10,1,0,0,0,148,148,160,1,,,,,,,,,,,,,,,,,,,,,,,
,,,,,,,,,,,,,,,,,,,,,,,,,,,,,,,,,,,,,,,,,,,5d7d0cc0e32539001a174642,5fe192c7df8451428fad09fd,2020-12-22_07h31.57.817,FlowerSimilarity_Experiment,2020.1.2,Win32,60,5fe17d4a51f3a9c1a60f9869,,,,,,,,,,,,,,,,,,,7,FF,,1,1.32225,,,,,,,,,,,,,,,,,,,,,,,,,,,,,,,,,,-81,38,1,0,0,response7disk,5,150,0,-5,1,0,0,rectangle,0,-5,1,0,0,5,4,"[312,215,121,119,109,61,81,143,192,35,154,187,257,158,183,169,277,226,284,237]",0,-5,1,0,0,0,149,149,156,1,,,,,,,,,,,,,,,,,,,,,,,
,,,,,,,,,,,,,,,,,,,,,,,,,,,,,,,,,,,,,,,,,,,5d7d0cc0e32539001a174642,5fe192c7df8451428fad09fd,2020-12-22_07h31.57.817,FlowerSimilarity_Experiment,2020.1.2,Win32,60,5fe17d4a51f3a9c1a60f9869,,,,,,,,,,,,,,,,,,,3,PF,,1,0.73794,,,,,,,,,,,,,,,,,,,,,,,,,,,,,,,,,,-69,43,1,0,0,response7disk,5,151,-5,2,1,0,0,rectangle,-5,2,1,0,0,5,7,"[312,215,121,119,109,61,81,143,192,35,154,187,257,158,183,169,277,226,284,237]",-5,2,1,0,0,0,150,150,66,1,,,,,,,,,,,,,,,,,,,,,,,
,,,,,,,,,,,,,,,,,,,,,,,,,,,,,,,,,,,,,,,,,,,5d7d0cc0e32539001a174642,5fe192c7df8451428fad09fd,2020-12-22_07h31.57.817,FlowerSimilarity_Experiment,2020.1.2,Win32,60,5fe17d4a51f3a9c1a60f9869,,,,,,,,,,,,,,,,,,,7,PF,,4,1.29424,,,,,,,,,,,,,,,,,,,,,,,,,,,,,,,,,,29,-55,1,0,0,response3disk,2,152,-2,8,1,0,0,rectangle,-2,8,1,0,0,5,4,"[312,215,121,119,109,61,81,143,192,35,154,187,257,158,183,169,277,226,284,237]",-2,8,1,0,0,0,151,151,32,1,,,,,,,,,,,,,,,,,,,,,,,
,,,,,,,,,,,,,,,,,,,,,,,,,,,,,,,,,,,,,,,,,,,5d7d0cc0e32539001a174642,5fe192c7df8451428fad09fd,2020-12-22_07h31.57.817,FlowerSimilarity_Experiment,2020.1.2,Win32,60,5fe17d4a51f3a9c1a60f9869,,,,,,,,,,,,,,,,,,,9,FF,,7,0.766205,,,,,,,,,,,,,,,,,,,,,,,,,,,,,,,,,,52,91,1,0,0,response1disk,9,153,9,-5,1,0,0,rectangle,9,-5,1,0,0,5,3,"[312,215,121,119,109,61,81,143,192,35,154,187,257,158,183,169,277,226,284,237]",9,-5,1,0,0,0,152,152,17,1,,,,,,,,,,,,,,,,,,,,,,,
,,,,,,,,,,,,,,,,,,,,,,,,,,,,,,,,,,,,,,,,,,,5d7d0cc0e32539001a174642,5fe192c7df8451428fad09fd,2020-12-22_07h31.57.817,FlowerSimilarity_Experiment,2020.1.2,Win32,60,5fe17d4a51f3a9c1a60f9869,,,,,,,,,,,,,,,,,,,9,PF,,0,1.433445,,,,,,,,,,,,,,,,,,,,,,,,,,,,,,,,,,-24,77,1,0,0,response7disk,2,154,5,10,1,0,0,rectangle,131,50,1,0,0,6,6,"[312,215,121,119,109,61,81,143,192,35,154,187,257,158,183,169,277,226,284,237]",15,10,1,0,0,0,153,153,157,1,response1disk_3,rectangle,,,,,,,,,,,,,,,,,,,,,
,,,,,,,,,,,,,,,,,,,,,,,,,,,,,,,,,,,,,,,,,,,5d7d0cc0e32539001a174642,5fe192c7df8451428fad09fd,2020-12-22_07h31.57.817,FlowerSimilarity_Experiment,2020.1.2,Win32,60,5fe17d4a51f3a9c1a60f9869,,,,,,,,,,,,,,,,,,,6,FF,,7,0.68242,,,,,,,,,,,,,,,,,,,,,,,,,,,,,,,,,,42,92,1,0,0,response1disk,6,155,13,18,1,0,0,rectangle,13,18,1,0,0,6,7,"[312,215,121,119,109,61,81,143,192,35,154,187,257,158,183,169,277,226,284,237]",13,18,1,0,0,0,154,154,91,1,,,,,,,,,,,,,,,,,,,,,,,
,,,,,,,,,,,,,,,,,,,,,,,,,,,,,,,,,,,,,,,,,,,5d7d0cc0e32539001a174642,5fe192c7df8451428fad09fd,2020-12-22_07h31.57.817,FlowerSimilarity_Experiment,2020.1.2,Win32,60,5fe17d4a51f3a9c1a60f9869,,,,,,,,,,,,,,,,,,,2,FF,,0,1.197535,,,,,,,,,,,,,,,,,,,,,,,,,,,,,,,,,,-49,89,1,0,0,response7disk,6,156,-4,-16,1,0,0,rectangle,-4,-16,1,0,0,6,2,"[312,215,121,119,109,61,81,143,192,35,154,187,257,158,183,169,277,226,284,237]",-4,-16,1,0,0,0,155,155,40,1,,,,,,,,,,,,,,,,,,,,,,,
,,,,,,,,,,,,,,,,,,,,,,,,,,,,,,,,,,,,,,,,,,,5d7d0cc0e32539001a174642,5fe192c7df8451428fad09fd,2020-12-22_07h31.57.817,FlowerSimilarity_Experiment,2020.1.2,Win32,60,5fe17d4a51f3a9c1a60f9869,,,,,,,,,,,,,,,,,,,2,FF,,0,0.626885,,,,,,,,,,,,,,,,,,,,,,,,,,,,,,,,,,-31,86,1,0,0,response7disk,5,157,-7,-4,1,0,0,rectangle,-7,-4,1,0,0,6,3,"[312,215,121,119,109,61,81,143,192,35,154,187,257,158,183,169,277,226,284,237]",-7,-4,1,0,0,0,156,156,80,1,,,,,,,,,,,,,,,,,,,,,,,
,,,,,,,,,,,,,,,,,,,,,,,,,,,,,,,,,,,,,,,,,,,5d7d0cc0e32539001a174642,5fe192c7df8451428fad09fd,2020-12-22_07h31.57.817,FlowerSimilarity_Experiment,2020.1.2,Win32,60,5fe17d4a51f3a9c1a60f9869,,,,,,,,,,,,,,,,,,,8,PF,,4,1.39184,,,,,,,,,,,,,,,,,,,,,,,,,,,,,,,,,,55,-70,1,0,0,response3disk,7,158,16,-13,1,0,0,rectangle,-74,26,1,0,0,1,1,"[312,215,121,119,109,61,81,143,192,35,154,187,257,158,183,169,277,226,284,237]",1,-8,1,0,0,0,157,157,23,1,response7disk_3,rectangle,,,,,,,,,,,,,,,,,,,,,
,,,,,,,,,,,,,,,,,,,,,,,,,,,,,,,,,,,,,,,,,,,5d7d0cc0e32539001a174642,5fe192c7df8451428fad09fd,2020-12-22_07h31.57.817,FlowerSimilarity_Experiment,2020.1.2,Win32,60,5fe17d4a51f3a9c1a60f9869,,,,,,,,,,,,,,,,,,,3,FF,,0,0.71017,,,,,,,,,,,,,,,,,,,,,,,,,,,,,,,,,,-25,77,1,0,0,response7disk,9,159,0,4,1,0,0,rectangle,0,4,1,0,0,1,0,"[312,215,121,119,109,61,81,143,192,35,154,187,257,158,183,169,277,226,284,237]",0,4,1,0,0,0,158,158,143,1,,,,,,,,,,,,,,,,,,,,,,,
,,,,,,,,,,,,,,,,,,,,,,,,,,,,,,,,,,,,,,,,,,,5d7d0cc0e32539001a174642,5fe192c7df8451428fad09fd,2020-12-22_07h31.57.817,FlowerSimilarity_Experiment,2020.1.2,Win32,60,5fe17d4a51f3a9c1a60f9869,,,,,,,,,,,,,,,,,,,4,FF,,0,0.60219,,,,,,,,,,,,,,,,,,,,,,,,,,,,,,,,,,-32,65,1,0,0,response7disk,9,160,-4,-2,1,0,0,rectangle,-4,-2,1,0,0,1,7,"[312,215,121,119,109,61,81,143,192,35,154,187,257,158,183,169,277,226,284,237]",-4,-2,1,0,0,0,159,159,90,1,,,,,,,,,,,,,,,,,,,,,,,
,,,,,,,,,,,,,,,,,,,,,,,,,,,,,,,,,,,,,,,,,,,5d7d0cc0e32539001a174642,5fe192c7df8451428fad09fd,2020-12-22_07h31.57.817,FlowerSimilarity_Experiment,2020.1.2,Win32,60,5fe17d4a51f3a9c1a60f9869,,,,,,,,,,,,,,,,,,,7,FF,,7,0.654765,,,,,,,,,,,,,,,,,,,,,,,,,,,,,,,,,,61,104,1,0,0,response1disk,3,161,9,1,1,0,0,rectangle,9,1,1,0,0,1,1,"[312,215,121,119,109,61,81,143,192,35,154,187,257,158,183,169,277,226,284,237]",9,1,1,0,0,0,160,160,73,1,,,,,,,,,,,,,,,,,,,,,,,
,,,,,,,,,,,,,,,,,,,,,,,,,,,,,,,,,,,,,,,,,,,5d7d0cc0e32539001a174642,5fe192c7df8451428fad09fd,2020-12-22_07h31.57.817,FlowerSimilarity_Experiment,2020.1.2,Win32,60,5fe17d4a51f3a9c1a60f9869,,,,,,,,,,,,,,,,,,,6,PF,,0,1.65604,,,,,,,,,,,,,,,,,,,,,,,,,,,,,,,,,,-58,71,1,0,0,response7disk,5,162,-14,9,1,0,0,rectangle,-14,9,1,0,0,1,6,"[312,215,121,119,109,61,81,143,192,35,154,187,257,158,183,169,277,226,284,237]",-14,9,1,0,0,0,161,161,59,1,,,,,,,,,,,,,,,,,,,,,,,
,,,,,,,,,,,,,,,,,,,,,,,,,,,,,,,,,,,,,,,,,,,5d7d0cc0e32539001a174642,5fe192c7df8451428fad09fd,2020-12-22_07h31.57.817,FlowerSimilarity_Experiment,2020.1.2,Win32,60,5fe17d4a51f3a9c1a60f9869,,,,,,,,,,,,,,,,,,,,,,,,,,,,,,,,,,,,,,,,,,,,,,,,,,,,,,,,,,,,,,,,,,,,,,,,,,,,,,,,,,,,,,,,,,,0,0,0,0,1,,,,,,,,,,,,,,,,
,,,,,,,,,,,,,,,,,,,,,,,,,,,,,,,,,,,,,,,,,,,5d7d0cc0e32539001a174642,5fe192c7df8451428fad09fd,2020-12-22_07h31.57.817,FlowerSimilarity_Experiment,2020.1.2,Win32,60,5fe17d4a51f3a9c1a60f9869,,,,,,,,,,,,,,,,,,,8,PF,,7,0.6268,,,,,,,,,,,,,,,,,,,,,,,,,,,,,,,,,,37,86,1,0,0,response1disk,5,163,4,-6,1,0,0,rectangle,4,-6,1,0,0,1,2,"[312,215,121,119,109,61,81,143,192,35,154,187,257,158,183,169,277,226,284,237]",4,-6,1,0,0,0,0,0,98,1,,,,,,,,,,,,,,,,,,,,,,,
,,,,,,,,,,,,,,,,,,,,,,,,,,,,,,,,,,,,,,,,,,,5d7d0cc0e32539001a174642,5fe192c7df8451428fad09fd,2020-12-22_07h31.57.817,FlowerSimilarity_Experiment,2020.1.2,Win32,60,5fe17d4a51f3a9c1a60f9869,,,,,,,,,,,,,,,,,,,5,PF,,0,0.835635,,,,,,,,,,,,,,,,,,,,,,,,,,,,,,,,,,-36,70,1,0,0,response7disk,1,164,5,5,1,0,0,rectangle,5,5,1,0,0,1,0,"[312,215,121,119,109,61,81,143,192,35,154,187,257,158,183,169,277,226,284,237]",5,5,1,0,0,0,1,1,159,1,,,,,,,,,,,,,,,,,,,,,,,
,,,,,,,,,,,,,,,,,,,,,,,,,,,,,,,,,,,,,,,,,,,5d7d0cc0e32539001a174642,5fe192c7df8451428fad09fd,2020-12-22_07h31.57.817,FlowerSimilarity_Experiment,2020.1.2,Win32,60,5fe17d4a51f3a9c1a60f9869,,,,,,,,,,,,,,,,,,,2,PF,,2,1.26675,,,,,,,,,,,,,,,,,,,,,,,,,,,,,,,,,,-79,-34,1,0,0,response5disk,7,165,14,5,1,0,0,rectangle,14,5,1,0,0,1,5,"[312,215,121,119,109,61,81,143,192,35,154,187,257,158,183,169,277,226,284,237]",14,5,1,0,0,0,2,2,107,1,,,,,,,,,,,,,,,,,,,,,,,
,,,,,,,,,,,,,,,,,,,,,,,,,,,,,,,,,,,,,,,,,,,5d7d0cc0e32539001a174642,5fe192c7df8451428fad09fd,2020-12-22_07h31.57.817,FlowerSimilarity_Experiment,2020.1.2,Win32,60,5fe17d4a51f3a9c1a60f9869,,,,,,,,,,,,,,,,,,,6,PF,,7,0.696365,,,,,,,,,,,,,,,,,,,,,,,,,,,,,,,,,,33,81,1,0,0,response1disk,6,166,18,8,1,0,0,rectangle,18,8,1,0,0,1,4,"[312,215,121,119,109,61,81,143,192,35,154,187,257,158,183,169,277,226,284,237]",18,8,1,0,0,0,3,3,0,1,,,,,,,,,,,,,,,,,,,,,,,
,,,,,,,,,,,,,,,,,,,,,,,,,,,,,,,,,,,,,,,,,,,5d7d0cc0e32539001a174642,5fe192c7df8451428fad09fd,2020-12-22_07h31.57.817,FlowerSimilarity_Experiment,2020.1.2,Win32,60,5fe17d4a51f3a9c1a60f9869,,,,,,,,,,,,,,,,,,,5,FF,,0,0.94644,,,,,,,,,,,,,,,,,,,,,,,,,,,,,,,,,,-43,69,1,0,0,response7disk,9,167,-9,0,1,0,0,rectangle,-9,0,1,0,0,1,2,"[312,215,121,119,109,61,81,143,192,35,154,187,257,158,183,169,277,226,284,237]",-9,0,1,0,0,0,4,4,61,1,,,,,,,,,,,,,,,,,,,,,,,
,,,,,,,,,,,,,,,,,,,,,,,,,,,,,,,,,,,,,,,,,,,5d7d0cc0e32539001a174642,5fe192c7df8451428fad09fd,2020-12-22_07h31.57.817,FlowerSimilarity_Experiment,2020.1.2,Win32,60,5fe17d4a51f3a9c1a60f9869,,,,,,,,,,,,,,,,,,,5,FF,,6,1.4882,,,,,,,,,,,,,,,,,,,,,,,,,,,,,,,,,,62,24,1,0,0,response1disk,8,168,10,-11,1,0,0,rectangle,10,-11,1,0,0,1,1,"[312,215,121,119,109,61,81,143,192,35,154,187,257,158,183,169,277,226,284,237]",10,-11,1,0,0,0,5,5,16,1,,,,,,,,,,,,,,,,,,,,,,,
,,,,,,,,,,,,,,,,,,,,,,,,,,,,,,,,,,,,,,,,,,,5d7d0cc0e32539001a174642,5fe192c7df8451428fad09fd,2020-12-22_07h31.57.817,FlowerSimilarity_Experiment,2020.1.2,Win32,60,5fe17d4a51f3a9c1a60f9869,,,,,,,,,,,,,,,,,,,1,FF,,4,0.97462,,,,,,,,,,,,,,,,,,,,,,,,,,,,,,,,,,40,-63,1,0,0,response3disk,6,169,-3,-6,1,0,0,rectangle,-82,48,1,0,0,1,1,"[312,215,121,119,109,61,81,143,192,35,154,187,257,158,183,169,277,226,284,237]",7,-5,1,0,0,0,6,6,58,1,response7disk_3,rectangle,,,,,,,,,,,,,,,,,,,,,
,,,,,,,,,,,,,,,,,,,,,,,,,,,,,,,,,,,,,,,,,,,5d7d0cc0e32539001a174642,5fe192c7df8451428fad09fd,2020-12-22_07h31.57.817,FlowerSimilarity_Experiment,2020.1.2,Win32,60,5fe17d4a51f3a9c1a60f9869,,,,,,,,,,,,,,,,,,,4,PF,,0,0.891575,,,,,,,,,,,,,,,,,,,,,,,,,,,,,,,,,,-41,76,1,0,0,response7disk,1,170,-4,-2,1,0,0,rectangle,-4,-2,1,0,0,1,0,"[312,215,121,119,109,61,81,143,192,35,154,187,257,158,183,169,277,226,284,237]",-4,-2,1,0,0,0,7,7,115,1,,,,,,,,,,,,,,,,,,,,,,,
,,,,,,,,,,,,,,,,,,,,,,,,,,,,,,,,,,,,,,,,,,,5d7d0cc0e32539001a174642,5fe192c7df8451428fad09fd,2020-12-22_07h31.57.817,FlowerSimilarity_Experiment,2020.1.2,Win32,60,5fe17d4a51f3a9c1a60f9869,,,,,,,,,,,,,,,,,,,1,FF,,0,0.738155,,,,,,,,,,,,,,,,,,,,,,,,,,,,,,,,,,-23,75,1,0,0,response7disk,7,171,-12,8,1,0,0,rectangle,-12,8,1,0,0,1,3,"[312,215,121,119,109,61,81,143,192,35,154,187,257,158,183,169,277,226,284,237]",-12,8,1,0,0,0,8,8,137,1,,,,,,,,,,,,,,,,,,,,,,,
,,,,,,,,,,,,,,,,,,,,,,,,,,,,,,,,,,,,,,,,,,,5d7d0cc0e32539001a174642,5fe192c7df8451428fad09fd,2020-12-22_07h31.57.817,FlowerSimilarity_Experiment,2020.1.2,Win32,60,5fe17d4a51f3a9c1a60f9869,,,,,,,,,,,,,,,,,,,7,PF,,1,0.80797,,,,,,,,,,,,,,,,,,,,,,,,,,,,,,,,,,-65,28,1,0,0,response7disk,1,172,-6,-6,1,0,0,rectangle,-6,-6,1,0,0,1,3,"[312,215,121,119,109,61,81,143,192,35,154,187,257,158,183,169,277,226,284,237]",-6,-6,1,0,0,0,9,9,53,1,,,,,,,,,,,,,,,,,,,,,,,
,,,,,,,,,,,,,,,,,,,,,,,,,,,,,,,,,,,,,,,,,,,5d7d0cc0e32539001a174642,5fe192c7df8451428fad09fd,2020-12-22_07h31.57.817,FlowerSimilarity_Experiment,2020.1.2,Win32,60,5fe17d4a51f3a9c1a60f9869,,,,,,,,,,,,,,,,,,,5,PF,,2,1.600715,,,,,,,,,,,,,,,,,,,,,,,,,,,,,,,,,,-92,-34,1,0,0,response5disk,6,173,-2,1,1,0,0,rectangle,-2,1,1,0,0,1,1,"[312,215,121,119,109,61,81,143,192,35,154,187,257,158,183,169,277,226,284,237]",-2,1,1,0,0,0,10,10,103,1,,,,,,,,,,,,,,,,,,,,,,,
,,,,,,,,,,,,,,,,,,,,,,,,,,,,,,,,,,,,,,,,,,,5d7d0cc0e32539001a174642,5fe192c7df8451428fad09fd,2020-12-22_07h31.57.817,FlowerSimilarity_Experiment,2020.1.2,Win32,60,5fe17d4a51f3a9c1a60f9869,,,,,,,,,,,,,,,,,,,1,PF,,3,1.25285,,,,,,,,,,,,,,,,,,,,,,,,,,,,,,,,,,-33,-90,1,0,0,response5disk,9,174,8,-15,1,0,0,rectangle,8,-15,1,0,0,1,0,"[312,215,121,119,109,61,81,143,192,35,154,187,257,158,183,169,277,226,284,237]",8,-15,1,0,0,0,11,11,15,1,,,,,,,,,,,,,,,,,,,,,,,
,,,,,,,,,,,,,,,,,,,,,,,,,,,,,,,,,,,,,,,,,,,5d7d0cc0e32539001a174642,5fe192c7df8451428fad09fd,2020-12-22_07h31.57.817,FlowerSimilarity_Experiment,2020.1.2,Win32,60,5fe17d4a51f3a9c1a60f9869,,,,,,,,,,,,,,,,,,,4,FF,,0,0.932945,,,,,,,,,,,,,,,,,,,,,,,,,,,,,,,,,,-45,73,1,0,0,response7disk,6,175,-11,5,1,0,0,rectangle,-11,5,1,0,0,1,3,"[312,215,121,119,109,61,81,143,192,35,154,187,257,158,183,169,277,226,284,237]",-11,5,1,0,0,0,12,12,122,1,,,,,,,,,,,,,,,,,,,,,,,
,,,,,,,,,,,,,,,,,,,,,,,,,,,,,,,,,,,,,,,,,,,5d7d0cc0e32539001a174642,5fe192c7df8451428fad09fd,2020-12-22_07h31.57.817,FlowerSimilarity_Experiment,2020.1.2,Win32,60,5fe17d4a51f3a9c1a60f9869,,,,,,,,,,,,,,,,,,,6,FF,,0,1.14049,,,,,,,,,,,,,,,,,,,,,,,,,,,,,,,,,,-54,115,1,0,0,response7disk,4,176,-1,15,1,0,0,rectangle,-1,15,1,0,0,1,3,"[312,215,121,119,109,61,81,143,192,35,154,187,257,158,183,169,277,226,284,237]",-1,15,1,0,0,0,13,13,56,1,,,,,,,,,,,,,,,,,,,,,,,
,,,,,,,,,,,,,,,,,,,,,,,,,,,,,,,,,,,,,,,,,,,5d7d0cc0e32539001a174642,5fe192c7df8451428fad09fd,2020-12-22_07h31.57.817,FlowerSimilarity_Experiment,2020.1.2,Win32,60,5fe17d4a51f3a9c1a60f9869,,,,,,,,,,,,,,,,,,,8,FF,,0,0.55742,,,,,,,,,,,,,,,,,,,,,,,,,,,,,,,,,,-34,89,1,0,0,response7disk,9,177,18,-1,1,0,0,rectangle,18,-1,1,0,0,1,2,"[312,215,121,119,109,61,81,143,192,35,154,187,257,158,183,169,277,226,284,237]",18,-1,1,0,0,0,14,14,105,1,,,,,,,,,,,,,,,,,,,,,,,
,,,,,,,,,,,,,,,,,,,,,,,,,,,,,,,,,,,,,,,,,,,5d7d0cc0e32539001a174642,5fe192c7df8451428fad09fd,2020-12-22_07h31.57.817,FlowerSimilarity_Experiment,2020.1.2,Win32,60,5fe17d4a51f3a9c1a60f9869,,,,,,,,,,,,,,,,,,,7,PF,,1,0.9189,,,,,,,,,,,,,,,,,,,,,,,,,,,,,,,,,,-77,37,1,0,0,response7disk,9,178,-20,7,1,0,0,rectangle,-20,7,1,0,0,1,4,"[312,215,121,119,109,61,81,143,192,35,154,187,257,158,183,169,277,226,284,237]",-20,7,1,0,0,0,15,15,10,1,,,,,,,,,,,,,,,,,,,,,,,
,,,,,,,,,,,,,,,,,,,,,,,,,,,,,,,,,,,,,,,,,,,5d7d0cc0e32539001a174642,5fe192c7df8451428fad09fd,2020-12-22_07h31.57.817,FlowerSimilarity_Experiment,2020.1.2,Win32,60,5fe17d4a51f3a9c1a60f9869,,,,,,,,,,,,,,,,,,,4,PF,,0,0.654755,,,,,,,,,,,,,,,,,,,,,,,,,,,,,,,,,,-35,85,1,0,0,response7disk,5,179,-17,3,1,0,0,rectangle,-17,3,1,0,0,1,1,"[312,215,121,119,109,61,81,143,192,35,154,187,257,158,183,169,277,226,284,237]",-17,3,1,0,0,0,16,16,49,1,,,,,,,,,,,,,,,,,,,,,,,
,,,,,,,,,,,,,,,,,,,,,,,,,,,,,,,,,,,,,,,,,,,5d7d0cc0e32539001a174642,5fe192c7df8451428fad09fd,2020-12-22_07h31.57.817,FlowerSimilarity_Experiment,2020.1.2,Win32,60,5fe17d4a51f3a9c1a60f9869,,,,,,,,,,,,,,,,,,,4,PF,,0,0.52984,,,,,,,,,,,,,,,,,,,,,,,,,,,,,,,,,,-34,94,1,0,0,response7disk,9,180,-14,12,1,0,0,rectangle,-14,12,1,0,0,1,4,"[312,215,121,119,109,61,81,143,192,35,154,187,257,158,183,169,277,226,284,237]",-14,12,1,0,0,0,17,17,75,1,,,,,,,,,,,,,,,,,,,,,,,
,,,,,,,,,,,,,,,,,,,,,,,,,,,,,,,,,,,,,,,,,,,5d7d0cc0e32539001a174642,5fe192c7df8451428fad09fd,2020-12-22_07h31.57.817,FlowerSimilarity_Experiment,2020.1.2,Win32,60,5fe17d4a51f3a9c1a60f9869,,,,,,,,,,,,,,,,,,,6,PF,,1,1.253105,,,,,,,,,,,,,,,,,,,,,,,,,,,,,,,,,,-73,35,1,0,0,response7disk,8,181,13,-9,1,0,0,rectangle,13,-9,1,0,0,1,7,"[312,215,121,119,109,61,81,143,192,35,154,187,257,158,183,169,277,226,284,237]",13,-9,1,0,0,0,18,18,64,1,,,,,,,,,,,,,,,,,,,,,,,
,,,,,,,,,,,,,,,,,,,,,,,,,,,,,,,,,,,,,,,,,,,5d7d0cc0e32539001a174642,5fe192c7df8451428fad09fd,2020-12-22_07h31.57.817,FlowerSimilarity_Experiment,2020.1.2,Win32,60,5fe17d4a51f3a9c1a60f9869,,,,,,,,,,,,,,,,,,,2,FF,,2,0.93285,,,,,,,,,,,,,,,,,,,,,,,,,,,,,,,,,,-59,-37,1,0,0,response5disk,8,182,-4,-3,1,0,0,rectangle,-4,-3,1,0,0,1,0,"[312,215,121,119,109,61,81,143,192,35,154,187,257,158,183,169,277,226,284,237]",-4,-3,1,0,0,0,19,19,62,1,,,,,,,,,,,,,,,,,,,,,,,
,,,,,,,,,,,,,,,,,,,,,,,,,,,,,,,,,,,,,,,,,,,5d7d0cc0e32539001a174642,5fe192c7df8451428fad09fd,2020-12-22_07h31.57.817,FlowerSimilarity_Experiment,2020.1.2,Win32,60,5fe17d4a51f3a9c1a60f9869,,,,,,,,,,,,,,,,,,,4,PF,,7,0.974595,,,,,,,,,,,,,,,,,,,,,,,,,,,,,,,,,,53,92,1,0,0,response1disk,4,183,-6,1,1,0,0,rectangle,-48,95,1,0,0,0,0,"[312,215,121,119,109,61,81,143,192,35,154,187,257,158,183,169,277,226,284,237]",-7,11,1,0,0,0,20,20,70,1,response7disk_3,rectangle,,,,,,,,,,,,,,,,,,,,,
,,,,,,,,,,,,,,,,,,,,,,,,,,,,,,,,,,,,,,,,,,,5d7d0cc0e32539001a174642,5fe192c7df8451428fad09fd,2020-12-22_07h31.57.817,FlowerSimilarity_Experiment,2020.1.2,Win32,60,5fe17d4a51f3a9c1a60f9869,,,,,,,,,,,,,,,,,,,6,FF,,0,1.28065,,,,,,,,,,,,,,,,,,,,,,,,,,,,,,,,,,-50,94,1,0,0,response7disk,8,184,10,-2,1,0,0,rectangle,10,-2,1,0,0,0,0,"[312,215,121,119,109,61,81,143,192,35,154,187,257,158,183,169,277,226,284,237]",10,-2,1,0,0,0,21,21,133,1,,,,,,,,,,,,,,,,,,,,,,,
,,,,,,,,,,,,,,,,,,,,,,,,,,,,,,,,,,,,,,,,,,,5d7d0cc0e32539001a174642,5fe192c7df8451428fad09fd,2020-12-22_07h31.57.817,FlowerSimilarity_Experiment,2020.1.2,Win32,60,5fe17d4a51f3a9c1a60f9869,,,,,,,,,,,,,,,,,,,8,FF,,0,0.79364,,,,,,,,,,,,,,,,,,,,,,,,,,,,,,,,,,-40,93,1,0,0,response7disk,4,185,22,9,1,0,0,rectangle,22,9,1,0,0,0,5,"[312,215,121,119,109,61,81,143,192,35,154,187,257,158,183,169,277,226,284,237]",22,9,1,0,0,0,22,22,88,1,,,,,,,,,,,,,,,,,,,,,,,
,,,,,,,,,,,,,,,,,,,,,,,,,,,,,,,,,,,,,,,,,,,5d7d0cc0e32539001a174642,5fe192c7df8451428fad09fd,2020-12-22_07h31.57.817,FlowerSimilarity_Experiment,2020.1.2,Win32,60,5fe17d4a51f3a9c1a60f9869,,,,,,,,,,,,,,,,,,,6,PF,,2,1.335915,,,,,,,,,,,,,,,,,,,,,,,,,,,,,,,,,,-60,-40,1,0,0,response5disk,1,186,11,9,1,0,0,rectangle,11,9,1,0,0,0,7,"[312,215,121,119,109,61,81,143,192,35,154,187,257,158,183,169,277,226,284,237]",11,9,1,0,0,0,23,23,46,1,,,,,,,,,,,,,,,,,,,,,,,
,,,,,,,,,,,,,,,,,,,,,,,,,,,,,,,,,,,,,,,,,,,5d7d0cc0e32539001a174642,5fe192c7df8451428fad09fd,2020-12-22_07h31.57.817,FlowerSimilarity_Experiment,2020.1.2,Win32,60,5fe17d4a51f3a9c1a60f9869,,,,,,,,,,,,,,,,,,,2,PF,,2,0.973765,,,,,,,,,,,,,,,,,,,,,,,,,,,,,,,,,,-57,-39,1,0,0,response5disk,9,187,5,-4,1,0,0,rectangle,32,-92,1,0,0,4,4,"[312,215,121,119,109,61,81,143,192,35,154,187,257,158,183,169,277,226,284,237]",5,-8,1,0,0,0,24,24,39,1,response3disk_3,rectangle,,,,,,,,,,,,,,,,,,,,,
,,,,,,,,,,,,,,,,,,,,,,,,,,,,,,,,,,,,,,,,,,,5d7d0cc0e32539001a174642,5fe192c7df8451428fad09fd,2020-12-22_07h31.57.817,FlowerSimilarity_Experiment,2020.1.2,Win32,60,5fe17d4a51f3a9c1a60f9869,,,,,,,,,,,,,,,,,,,1,PF,,2,1.377745,,,,,,,,,,,,,,,,,,,,,,,,,,,,,,,,,,-78,-31,1,0,0,response5disk,3,188,6,-3,1,0,0,rectangle,6,-3,1,0,0,4,7,"[312,215,121,119,109,61,81,143,192,35,154,187,257,158,183,169,277,226,284,237]",6,-3,1,0,0,0,25,25,1,1,,,,,,,,,,,,,,,,,,,,,,,
,,,,,,,,,,,,,,,,,,,,,,,,,,,,,,,,,,,,,,,,,,,5d7d0cc0e32539001a174642,5fe192c7df8451428fad09fd,2020-12-22_07h31.57.817,FlowerSimilarity_Experiment,2020.1.2,Win32,60,5fe17d4a51f3a9c1a60f9869,,,,,,,,,,,,,,,,,,,2,PF,,0,0.946285,,,,,,,,,,,,,,,,,,,,,,,,,,,,,,,,,,-49,97,1,0,0,response7disk,6,189,-17,-3,1,0,0,rectangle,-17,-3,1,0,0,4,0,"[312,215,121,119,109,61,81,143,192,35,154,187,257,158,183,169,277,226,284,237]",-17,-3,1,0,0,0,26,26,113,1,,,,,,,,,,,,,,,,,,,,,,,
,,,,,,,,,,,,,,,,,,,,,,,,,,,,,,,,,,,,,,,,,,,5d7d0cc0e32539001a174642,5fe192c7df8451428fad09fd,2020-12-22_07h31.57.817,FlowerSimilarity_Experiment,2020.1.2,Win32,60,5fe17d4a51f3a9c1a60f9869,,,,,,,,,,,,,,,,,,,4,FF,,0,0.94671,,,,,,,,,,,,,,,,,,,,,,,,,,,,,,,,,,-38,79,1,0,0,response7disk,5,190,1,-8,1,0,0,rectangle,1,-8,1,0,0,4,7,"[312,215,121,119,109,61,81,143,192,35,154,187,257,158,183,169,277,226,284,237]",1,-8,1,0,0,0,27,27,116,1,,,,,,,,,,,,,,,,,,,,,,,
,,,,,,,,,,,,,,,,,,,,,,,,,,,,,,,,,,,,,,,,,,,5d7d0cc0e32539001a174642,5fe192c7df8451428fad09fd,2020-12-22_07h31.57.817,FlowerSimilarity_Experiment,2020.1.2,Win32,60,5fe17d4a51f3a9c1a60f9869,,,,,,,,,,,,,,,,,,,3,FF,,7,1.029985,,,,,,,,,,,,,,,,,,,,,,,,,,,,,,,,,,36,75,1,0,0,response1disk,3,191,0,-17,1,0,0,rectangle,0,-17,1,0,0,4,7,"[312,215,121,119,109,61,81,143,192,35,154,187,257,158,183,169,277,226,284,237]",0,-17,1,0,0,0,28,28,68,1,,,,,,,,,,,,,,,,,,,,,,,
,,,,,,,,,,,,,,,,,,,,,,,,,,,,,,,,,,,,,,,,,,,5d7d0cc0e32539001a174642,5fe192c7df8451428fad09fd,2020-12-22_07h31.57.817,FlowerSimilarity_Experiment,2020.1.2,Win32,60,5fe17d4a51f3a9c1a60f9869,,,,,,,,,,,,,,,,,,,7,FF,,4,1.503255,,,,,,,,,,,,,,,,,,,,,,,,,,,,,,,,,,37,-63,1,0,0,response3disk,4,192,-7,1,1,0,0,rectangle,32,-104,1,0,0,4,4,"[312,215,121,119,109,61,81,143,192,35,154,187,257,158,183,169,277,226,284,237]",-3,-6,1,0,0,0,29,29,158,1,response3disk_3,rectangle,,,,,,,,,,,,,,,,,,,,,
,,,,,,,,,,,,,,,,,,,,,,,,,,,,,,,,,,,,,,,,,,,5d7d0cc0e32539001a174642,5fe192c7df8451428fad09fd,2020-12-22_07h31.57.817,FlowerSimilarity_Experiment,2020.1.2,Win32,60,5fe17d4a51f3a9c1a60f9869,,,,,,,,,,,,,,,,,,,1,PF,,0,0.93287,,,,,,,,,,,,,,,,,,,,,,,,,,,,,,,,,,-25,69,1,0,0,response7disk,4,193,4,1,1,0,0,rectangle,4,1,1,0,0,4,3,"[312,215,121,119,109,61,81,143,192,35,154,187,257,158,183,169,277,226,284,237]",4,1,1,0,0,0,30,30,139,1,,,,,,,,,,,,,,,,,,,,,,,
,,,,,,,,,,,,,,,,,,,,,,,,,,,,,,,,,,,,,,,,,,,5d7d0cc0e32539001a174642,5fe192c7df8451428fad09fd,2020-12-22_07h31.57.817,FlowerSimilarity_Experiment,2020.1.2,Win32,60,5fe17d4a51f3a9c1a60f9869,,,,,,,,,,,,,,,,,,,5,FF,,1,1.461385,,,,,,,,,,,,,,,,,,,,,,,,,,,,,,,,,,-85,43,1,0,0,response7disk,7,194,33,-1,1,0,0,rectangle,33,-1,1,0,0,4,7,"[312,215,121,119,109,61,81,143,192,35,154,187,257,158,183,169,277,226,284,237]",33,-1,1,0,0,0,31,31,7,1,,,,,,,,,,,,,,,,,,,,,,,
,,,,,,,,,,,,,,,,,,,,,,,,,,,,,,,,,,,,,,,,,,,5d7d0cc0e32539001a174642,5fe192c7df8451428fad09fd,2020-12-22_07h31.57.817,FlowerSimilarity_Experiment,2020.1.2,Win32,60,5fe17d4a51f3a9c1a60f9869,,,,,,,,,,,,,,,,,,,6,PF,,0,0.598355,,,,,,,,,,,,,,,,,,,,,,,,,,,,,,,,,,-54,90,1,0,0,response7disk,2,195,-5,14,1,0,0,rectangle,-5,14,1,0,0,4,3,"[312,215,121,119,109,61,81,143,192,35,154,187,257,158,183,169,277,226,284,237]",-5,14,1,0,0,0,32,32,130,1,,,,,,,,,,,,,,,,,,,,,,,
,,,,,,,,,,,,,,,,,,,,,,,,,,,,,,,,,,,,,,,,,,,5d7d0cc0e32539001a174642,5fe192c7df8451428fad09fd,2020-12-22_07h31.57.817,FlowerSimilarity_Experiment,2020.1.2,Win32,60,5fe17d4a51f3a9c1a60f9869,,,,,,,,,,,,,,,,,,,1,PF,,0,0.821355,,,,,,,,,,,,,,,,,,,,,,,,,,,,,,,,,,-28,62,1,0,0,response7disk,2,196,-8,16,1,0,0,rectangle,-8,16,1,0,0,4,5,"[312,215,121,119,109,61,81,143,192,35,154,187,257,158,183,169,277,226,284,237]",-8,16,1,0,0,0,33,33,24,1,,,,,,,,,,,,,,,,,,,,,,,
,,,,,,,,,,,,,,,,,,,,,,,,,,,,,,,,,,,,,,,,,,,5d7d0cc0e32539001a174642,5fe192c7df8451428fad09fd,2020-12-22_07h31.57.817,FlowerSimilarity_Experiment,2020.1.2,Win32,60,5fe17d4a51f3a9c1a60f9869,,,,,,,,,,,,,,,,,,,1,FF,,2,1.09979,,,,,,,,,,,,,,,,,,,,,,,,,,,,,,,,,,-71,-38,1,0,0,response5disk,9,197,-1,9,1,0,0,rectangle,-1,9,1,0,0,4,3,"[312,215,121,119,109,61,81,143,192,35,154,187,257,158,183,169,277,226,284,237]",-1,9,1,0,0,0,34,34,123,1,,,,,,,,,,,,,,,,,,,,,,,
,,,,,,,,,,,,,,,,,,,,,,,,,,,,,,,,,,,,,,,,,,,5d7d0cc0e32539001a174642,5fe192c7df8451428fad09fd,2020-12-22_07h31.57.817,FlowerSimilarity_Experiment,2020.1.2,Win32,60,5fe17d4a51f3a9c1a60f9869,,,,,,,,,,,,,,,,,,,1,FF,,0,0.6827,,,,,,,,,,,,,,,,,,,,,,,,,,,,,,,,,,-37,66,1,0,0,response7disk,8,198,-22,3,1,0,0,rectangle,-22,3,1,0,0,4,5,"[312,215,121,119,109,61,81,143,192,35,154,187,257,158,183,169,277,226,284,237]",-22,3,1,0,0,0,35,35,27,1,,,,,,,,,,,,,,,,,,,,,,,
,,,,,,,,,,,,,,,,,,,,,,,,,,,,,,,,,,,,,,,,,,,5d7d0cc0e32539001a174642,5fe192c7df8451428fad09fd,2020-12-22_07h31.57.817,FlowerSimilarity_Experiment,2020.1.2,Win32,60,5fe17d4a51f3a9c1a60f9869,,,,,,,,,,,,,,,,,,,6,PF,,0,0.696585,,,,,,,,,,,,,,,,,,,,,,,,,,,,,,,,,,-43,75,1,0,0,response7disk,4,199,-33,16,1,0,0,rectangle,-33,16,1,0,0,4,4,"[312,215,121,119,109,61,81,143,192,35,154,187,257,158,183,169,277,226,284,237]",-33,16,1,0,0,0,36,36,33,1,,,,,,,,,,,,,,,,,,,,,,,
,,,,,,,,,,,,,,,,,,,,,,,,,,,,,,,,,,,,,,,,,,,5d7d0cc0e32539001a174642,5fe192c7df8451428fad09fd,2020-12-22_07h31.57.817,FlowerSimilarity_Experiment,2020.1.2,Win32,60,5fe17d4a51f3a9c1a60f9869,,,,,,,,,,,,,,,,,,,8,FF,,0,0.61307,,,,,,,,,,,,,,,,,,,,,,,,,,,,,,,,,,-33,73,1,0,0,response7disk,2,200,-9,11,1,0,0,rectangle,-9,11,1,0,0,4,6,"[312,215,121,119,109,61,81,143,192,35,154,187,257,158,183,169,277,226,284,237]",-9,11,1,0,0,0,37,37,22,1,,,,,,,,,,,,,,,,,,,,,,,
,,,,,,,,,,,,,,,,,,,,,,,,,,,,,,,,,,,,,,,,,,,5d7d0cc0e32539001a174642,5fe192c7df8451428fad09fd,2020-12-22_07h31.57.817,FlowerSimilarity_Experiment,2020.1.2,Win32,60,5fe17d4a51f3a9c1a60f9869,,,,,,,,,,,,,,,,,,,9,FF,,0,0.57132,,,,,,,,,,,,,,,,,,,,,,,,,,,,,,,,,,-34,62,1,0,0,response7disk,4,201,-9,-1,1,0,0,rectangle,-9,-1,1,0,0,4,0,"[312,215,121,119,109,61,81,143,192,35,154,187,257,158,183,169,277,226,284,237]",-9,-1,1,0,0,0,38,38,60,1,,,,,,,,,,,,,,,,,,,,,,,
,,,,,,,,,,,,,,,,,,,,,,,,,,,,,,,,,,,,,,,,,,,5d7d0cc0e32539001a174642,5fe192c7df8451428fad09fd,2020-12-22_07h31.57.817,FlowerSimilarity_Experiment,2020.1.2,Win32,60,5fe17d4a51f3a9c1a60f9869,,,,,,,,,,,,,,,,,,,3,PF,,0,0.58589,,,,,,,,,,,,,,,,,,,,,,,,,,,,,,,,,,-36,73,1,0,0,response7disk,6,202,-6,10,1,0,0,rectangle,-6,10,1,0,0,4,2,"[312,215,121,119,109,61,81,143,192,35,154,187,257,158,183,169,277,226,284,237]",-6,10,1,0,0,0,39,39,47,1,,,,,,,,,,,,,,,,,,,,,,,
,,,,,,,,,,,,,,,,,,,,,,,,,,,,,,,,,,,,,,,,,,,5d7d0cc0e32539001a174642,5fe192c7df8451428fad09fd,2020-12-22_07h31.57.817,FlowerSimilarity_Experiment,2020.1.2,Win32,60,5fe17d4a51f3a9c1a60f9869,,,,,,,,,,,,,,,,,,,8,FF,,1,1.41955,,,,,,,,,,,,,,,,,,,,,,,,,,,,,,,,,,-85,25,1,0,0,response7disk,6,203,12,-4,1,0,0,rectangle,12,-4,1,0,0,4,0,"[312,215,121,119,109,61,81,143,192,35,154,187,257,158,183,169,277,226,284,237]",12,-4,1,0,0,0,40,40,37,1,,,,,,,,,,,,,,,,,,,,,,,
