key_resp.keys,key_resp.rt,key_resp_16.keys,key_resp_16.rt,key_resp_2.keys,key_resp_2.rt,X Scale,ratio_pxpermm,screen_size_x,screen_size_y,testsize,key_resp_3.keys,key_resp_3.rt,key_resp_4.keys,key_resp_4.rt,line_size,key_resp_5.keys,key_resp_5.rt,key_resp_6.keys,key_resp_6.rt,key_resp_8.keys,key_resp_8.rt,key_resp_7.keys,key_resp_7.rt,key_resp_12.keys,key_resp_12.rt,key_resp_11.keys,key_resp_11.rt,key_resp_18.keys,key_resp_18.rt,key_resp_21.keys,key_resp_21.rt,key_resp_13.keys,key_resp_13.rt,key_resp_19.keys,key_resp_19.rt,ballposx,viewer_distance,trials.thisRepN,trials.thisTrialN,trials.thisN,trials.thisIndex,trials.ran,participant,session,date,expName,psychopyVersion,OS,frameRate,study_id,viewerdistancecm,DVA_to_distance,radius_F,radius_P,r_F,R_P,key_resp_20.keys,key_resp_20.rt,key_resp_14.keys,key_resp_14.rt,key_resp_15.keys,key_resp_15.rt,key_resp_17.keys,key_resp_17.rt,key_resp_9.keys,key_resp_9.rt,key_resp_10.keys,key_resp_10.rt,Flower1,Ecc,Flower_2,similarity,response_time,mouse_5.x,mouse_5.y,mouse_5.leftButton,mouse_5.midButton,mouse_5.rightButton,mouse_5.clicked_name,mouse_10.x,mouse_10.y,mouse_10.leftButton,mouse_10.midButton,mouse_10.rightButton,mouse_10.clicked_name,mouse_7.x,mouse_7.y,mouse_7.leftButton,mouse_7.midButton,mouse_7.rightButton,catchnumberprac,mouse_6.x,mouse_6.y,mouse_6.leftButton,mouse_6.midButton,mouse_6.rightButton,duringprac.thisRepN,duringprac.thisTrialN,duringprac.thisN,duringprac.thisIndex,duringprac.ran,mouse_7.clicked_name,catchprac,mouse_6.clicked_name,key_resp_22.keys,key_resp_22.rt,mouse.x,mouse.y,mouse.leftButton,mouse.midButton,mouse.rightButton,mouse.clicked_name,Flower2,trialnumber,mouse_2.x,mouse_2.y,mouse_2.leftButton,mouse_2.midButton,mouse_2.rightButton,mouse_2.clicked_name,mouse_3.x,mouse_3.y,mouse_3.leftButton,mouse_3.midButton,mouse_3.rightButton,catchresponse,catchnumber,catchtrialorder,mouse_11.x,mouse_11.y,mouse_11.leftButton,mouse_11.midButton,mouse_11.rightButton,trials_2.thisRepN,trials_2.thisTrialN,trials_2.thisN,trials_2.thisIndex,trials_2.ran,mouse_3.clicked_name,mouse_11.clicked_name,trials_3.thisRepN,trials_3.thisTrialN,trials_3.thisN,trials_3.thisIndex,trials_3.ran,answer1,rt1,answer2,rt2,answer3,rt3,answer4,rt4,answer5,rt5,answer6,rt6,answer8,rt8,answer7,rt7
space,5.264,space,11.24,space,10.719,33.2,3.32,578.313253,325.3012048,1920,space,39.186,space,12.92,66.4,space,21.262,space,6.57,space,9.351,space,22.907,space,9.271,space,21.698,space,11.457,space,21.905,space,17.992,return,1.502,-244.8,1270.667823,0,0,0,0,1,5d891cd0a592de000185ca5b,5fe192a9eb5270c319c108e6,2020-12-22_07h31.17.015,FlowerSimilarity_Experiment,2020.1.2,Win32,60,5fe17d4a51f3a9c1a60f9869,,,,,,,,,,,,,,,,,,,,,,,,,,,,,,,,,,,,,,,,,,,,,,,,,,,,,,,,,,,,,,,,,,,,,,,,,,,,,,,,,,,,,,,,,,,,,,,,,,,,,,,,,,,,,,,
,,,,,,,,,,,,,,,,,,,,,,,,,,,,,,,,,,return,1.527,-267.84,1299.574011,1,0,1,0,1,5d891cd0a592de000185ca5b,5fe192a9eb5270c319c108e6,2020-12-22_07h31.17.015,FlowerSimilarity_Experiment,2020.1.2,Win32,60,5fe17d4a51f3a9c1a60f9869,,,,,,,,,,,,,,,,,,,,,,,,,,,,,,,,,,,,,,,,,,,,,,,,,,,,,,,,,,,,,,,,,,,,,,,,,,,,,,,,,,,,,,,,,,,,,,,,,,,,,,,,,,,,,,,
,,,,,,,,,,,,,,,,,,,,,,,,,,,,,,,,,,return,1.771,-452.16,1530.82351,2,0,2,0,1,5d891cd0a592de000185ca5b,5fe192a9eb5270c319c108e6,2020-12-22_07h31.17.015,FlowerSimilarity_Experiment,2020.1.2,Win32,60,5fe17d4a51f3a9c1a60f9869,,,,,,,,,,,,,,,,,,,,,,,,,,,,,,,,,,,,,,,,,,,,,,,,,,,,,,,,,,,,,,,,,,,,,,,,,,,,,,,,,,,,,,,,,,,,,,,,,,,,,,,,,,,,,,,
,,,,,,,,,,,,,,,,,,,,,,,,,,,,,,,,,,return,1.765,-423.36,1494.690776,3,0,3,0,1,5d891cd0a592de000185ca5b,5fe192a9eb5270c319c108e6,2020-12-22_07h31.17.015,FlowerSimilarity_Experiment,2020.1.2,Win32,60,5fe17d4a51f3a9c1a60f9869,,,,,,,,,,,,,,,,,,,,,,,,,,,,,,,,,,,,,,,,,,,,,,,,,,,,,,,,,,,,,,,,,,,,,,,,,,,,,,,,,,,,,,,,,,,,,,,,,,,,,,,,,,,,,,,
,,,,,,,,,,,,,,,,,,,,,,,,,,,,,,,,,,return,2.475,-895.68,2087.267619,4,0,4,0,1,5d891cd0a592de000185ca5b,5fe192a9eb5270c319c108e6,2020-12-22_07h31.17.015,FlowerSimilarity_Experiment,2020.1.2,Win32,60,5fe17d4a51f3a9c1a60f9869,,,,,,,,,,,,,,,,,,,,,,,,,,,,,,,,,,,,,,,,,,,,,,,,,,,,,,,,,,,,,,,,,,,,,,,,,,,,,,,,,,,,,,,,,,,,,,,,,,,,,,,,,,,,,,,
,,,,,,,,,,,,,,,,,,,,,,,,,,,,,,,,,,,,,,,,,,,5d891cd0a592de000185ca5b,5fe192a9eb5270c319c108e6,2020-12-22_07h31.17.015,FlowerSimilarity_Experiment,2020.1.2,Win32,60,5fe17d4a51f3a9c1a60f9869,154,26.88079038,133.8663361,892.4422405,89.24422405,401.5990082,space,6.061,space,24.727,space,54.15,space,5.359,space,5.839,space,5.311,8,PF,3,3,31.803,-74,-109,1,0,0,response5disk_5,4,0,1,0,0,rectangle_8,4,0,1,0,0,6,4,0,1,0,0,0,0,0,6,1,,,,,,,,,,,,,,,,,,,,,,,,,,,,,,,,,,,,,,,,,,,,,,,,,,,,,,,,,,,,
,,,,,,,,,,,,,,,,,,,,,,,,,,,,,,,,,,,,,,,,,,,5d891cd0a592de000185ca5b,5fe192a9eb5270c319c108e6,2020-12-22_07h31.17.015,FlowerSimilarity_Experiment,2020.1.2,Win32,60,5fe17d4a51f3a9c1a60f9869,,,,,,,,,,,,,,,,,,,1,FF,6,3,8.518,-45,-72,1,0,0,response5disk_5,-5,-3,1,0,0,rectangle_8,120,56,1,0,0,6,25,-7,1,0,0,0,1,1,5,1,response1disk_7,6,rectangle_4,,,,,,,,,,,,,,,,,,,,,,,,,,,,,,,,,,,,,,,,,,,,,,,,,,,,,,,,,
,,,,,,,,,,,,,,,,,,,,,,,,,,,,,,,,,,,,,,,,,,,5d891cd0a592de000185ca5b,5fe192a9eb5270c319c108e6,2020-12-22_07h31.17.015,FlowerSimilarity_Experiment,2020.1.2,Win32,60,5fe17d4a51f3a9c1a60f9869,,,,,,,,,,,,,,,,,,,7,PF,8,7,5.176,63,97,1,0,0,response1disk_5,7,9,1,0,0,rectangle_8,7,9,1,0,0,6,7,9,1,0,0,0,2,2,1,1,,,,,,,,,,,,,,,,,,,,,,,,,,,,,,,,,,,,,,,,,,,,,,,,,,,,,,,,,,,,
,,,,,,,,,,,,,,,,,,,,,,,,,,,,,,,,,,,,,,,,,,,5d891cd0a592de000185ca5b,5fe192a9eb5270c319c108e6,2020-12-22_07h31.17.015,FlowerSimilarity_Experiment,2020.1.2,Win32,60,5fe17d4a51f3a9c1a60f9869,,,,,,,,,,,,,,,,,,,9,FF,5,7,1.818,78,128,1,0,0,response1disk_5,25,8,1,0,0,rectangle_8,25,8,1,0,0,6,25,8,1,0,0,0,3,3,0,1,,,,,,,,,,,,,,,,,,,,,,,,,,,,,,,,,,,,,,,,,,,,,,,,,,,,,,,,,,,,
,,,,,,,,,,,,,,,,,,,,,,,,,,,,,,,,,,,,,,,,,,,5d891cd0a592de000185ca5b,5fe192a9eb5270c319c108e6,2020-12-22_07h31.17.015,FlowerSimilarity_Experiment,2020.1.2,Win32,60,5fe17d4a51f3a9c1a60f9869,,,,,,,,,,,,,,,,,,,1,FF,7,7,1.669,57,115,1,0,0,response1disk_5,32,4,1,0,0,rectangle_8,115,47,1,0,0,6,23,-1,1,0,0,0,4,4,3,1,response1disk_7,6,rectangle_4,,,,,,,,,,,,,,,,,,,,,,,,,,,,,,,,,,,,,,,,,,,,,,,,,,,,,,,,,
,,,,,,,,,,,,,,,,,,,,,,,,,,,,,,,,,,,,,,,,,,,5d891cd0a592de000185ca5b,5fe192a9eb5270c319c108e6,2020-12-22_07h31.17.015,FlowerSimilarity_Experiment,2020.1.2,Win32,60,5fe17d4a51f3a9c1a60f9869,,,,,,,,,,,,,,,,,,,1,PF,1,0,3.158,-58,113,1,0,0,response7disk_5,3,9,1,0,0,rectangle_8,3,9,1,0,0,6,3,9,1,0,0,0,5,5,2,1,,,,,,,,,,,,,,,,,,,,,,,,,,,,,,,,,,,,,,,,,,,,,,,,,,,,,,,,,,,,
,,,,,,,,,,,,,,,,,,,,,,,,,,,,,,,,,,,,,,,,,,,5d891cd0a592de000185ca5b,5fe192a9eb5270c319c108e6,2020-12-22_07h31.17.015,FlowerSimilarity_Experiment,2020.1.2,Win32,60,5fe17d4a51f3a9c1a60f9869,,,,,,,,,,,,,,,,,,,5,PF,9,0,1.694,-56,95,1,0,0,response7disk_5,23,6,1,0,0,rectangle_8,23,6,1,0,0,6,23,6,1,0,0,0,6,6,4,1,,,,,,,,,,,,,,,,,,,,,,,,,,,,,,,,,,,,,,,,,,,,,,,,,,,,,,,,,,,,
,,,,,,,,,,,,,,,,,,,,,,,,,,,,,,,,,,,,,,,,,,,5d891cd0a592de000185ca5b,5fe192a9eb5270c319c108e6,2020-12-22_07h31.17.015,FlowerSimilarity_Experiment,2020.1.2,Win32,60,5fe17d4a51f3a9c1a60f9869,,,,,,,,,,,,,,,,,,,8,FF,,6,3.954,,,,,,,,,,,,,,,,,,,,,,,,,,,,,,,,space,4.995,121,65,1,0,0,response1disk,7,1,29,4,1,0,0,rectangle,29,4,1,0,0,,5,"[124,294,130,177,260,152,65,59,314,58,174,199,121,93,51,41,63,134,169,141]",29,4,1,0,0,0,0,0,86,1,,,,,,,,,,,,,,,,,,,,,,,
,,,,,,,,,,,,,,,,,,,,,,,,,,,,,,,,,,,,,,,,,,,5d891cd0a592de000185ca5b,5fe192a9eb5270c319c108e6,2020-12-22_07h31.17.015,FlowerSimilarity_Experiment,2020.1.2,Win32,60,5fe17d4a51f3a9c1a60f9869,,,,,,,,,,,,,,,,,,,7,PF,,7,2.362,,,,,,,,,,,,,,,,,,,,,,,,,,,,,,,,,,71,123,1,0,0,response1disk,6,2,28,-2,1,0,0,rectangle,28,-2,1,0,0,,2,"[124,294,130,177,260,152,65,59,314,58,174,199,121,93,51,41,63,134,169,141]",28,-2,1,0,0,0,1,1,29,1,,,,,,,,,,,,,,,,,,,,,,,
,,,,,,,,,,,,,,,,,,,,,,,,,,,,,,,,,,,,,,,,,,,5d891cd0a592de000185ca5b,5fe192a9eb5270c319c108e6,2020-12-22_07h31.17.015,FlowerSimilarity_Experiment,2020.1.2,Win32,60,5fe17d4a51f3a9c1a60f9869,,,,,,,,,,,,,,,,,,,9,FF,,6,1.898,,,,,,,,,,,,,,,,,,,,,,,,,,,,,,,,,,108,70,1,0,0,response1disk,8,3,30,-3,1,0,0,rectangle,30,-3,1,0,0,,1,"[124,294,130,177,260,152,65,59,314,58,174,199,121,93,51,41,63,134,169,141]",30,-3,1,0,0,0,2,2,6,1,,,,,,,,,,,,,,,,,,,,,,,
,,,,,,,,,,,,,,,,,,,,,,,,,,,,,,,,,,,,,,,,,,,5d891cd0a592de000185ca5b,5fe192a9eb5270c319c108e6,2020-12-22_07h31.17.015,FlowerSimilarity_Experiment,2020.1.2,Win32,60,5fe17d4a51f3a9c1a60f9869,,,,,,,,,,,,,,,,,,,6,FF,,6,1.368,,,,,,,,,,,,,,,,,,,,,,,,,,,,,,,,,,110,58,1,0,0,response1disk,3,4,29,6,1,0,0,rectangle,29,6,1,0,0,,1,"[124,294,130,177,260,152,65,59,314,58,174,199,121,93,51,41,63,134,169,141]",29,6,1,0,0,0,3,3,21,1,,,,,,,,,,,,,,,,,,,,,,,
,,,,,,,,,,,,,,,,,,,,,,,,,,,,,,,,,,,,,,,,,,,5d891cd0a592de000185ca5b,5fe192a9eb5270c319c108e6,2020-12-22_07h31.17.015,FlowerSimilarity_Experiment,2020.1.2,Win32,60,5fe17d4a51f3a9c1a60f9869,,,,,,,,,,,,,,,,,,,6,PF,,7,6.87,,,,,,,,,,,,,,,,,,,,,,,,,,,,,,,,,,57,107,1,0,0,response1disk,7,5,13,0,1,0,0,rectangle,13,0,1,0,0,,0,"[124,294,130,177,260,152,65,59,314,58,174,199,121,93,51,41,63,134,169,141]",13,0,1,0,0,0,4,4,50,1,,,,,,,,,,,,,,,,,,,,,,,
,,,,,,,,,,,,,,,,,,,,,,,,,,,,,,,,,,,,,,,,,,,5d891cd0a592de000185ca5b,5fe192a9eb5270c319c108e6,2020-12-22_07h31.17.015,FlowerSimilarity_Experiment,2020.1.2,Win32,60,5fe17d4a51f3a9c1a60f9869,,,,,,,,,,,,,,,,,,,9,PF,,7,1.077,,,,,,,,,,,,,,,,,,,,,,,,,,,,,,,,,,47,92,1,0,0,response1disk,8,6,20,-12,1,0,0,rectangle,20,-12,1,0,0,,2,"[124,294,130,177,260,152,65,59,314,58,174,199,121,93,51,41,63,134,169,141]",20,-12,1,0,0,0,5,5,67,1,,,,,,,,,,,,,,,,,,,,,,,
,,,,,,,,,,,,,,,,,,,,,,,,,,,,,,,,,,,,,,,,,,,5d891cd0a592de000185ca5b,5fe192a9eb5270c319c108e6,2020-12-22_07h31.17.015,FlowerSimilarity_Experiment,2020.1.2,Win32,60,5fe17d4a51f3a9c1a60f9869,,,,,,,,,,,,,,,,,,,6,PF,,7,0.951,,,,,,,,,,,,,,,,,,,,,,,,,,,,,,,,,,51,89,1,0,0,response1disk,8,7,23,5,1,0,0,rectangle,23,5,1,0,0,,6,"[124,294,130,177,260,152,65,59,314,58,174,199,121,93,51,41,63,134,169,141]",23,5,1,0,0,0,6,6,64,1,,,,,,,,,,,,,,,,,,,,,,,
,,,,,,,,,,,,,,,,,,,,,,,,,,,,,,,,,,,,,,,,,,,5d891cd0a592de000185ca5b,5fe192a9eb5270c319c108e6,2020-12-22_07h31.17.015,FlowerSimilarity_Experiment,2020.1.2,Win32,60,5fe17d4a51f3a9c1a60f9869,,,,,,,,,,,,,,,,,,,6,FF,,7,1.243,,,,,,,,,,,,,,,,,,,,,,,,,,,,,,,,,,51,90,1,0,0,response1disk,1,8,28,9,1,0,0,rectangle,28,9,1,0,0,,5,"[124,294,130,177,260,152,65,59,314,58,174,199,121,93,51,41,63,134,169,141]",28,9,1,0,0,0,7,7,5,1,,,,,,,,,,,,,,,,,,,,,,,
,,,,,,,,,,,,,,,,,,,,,,,,,,,,,,,,,,,,,,,,,,,5d891cd0a592de000185ca5b,5fe192a9eb5270c319c108e6,2020-12-22_07h31.17.015,FlowerSimilarity_Experiment,2020.1.2,Win32,60,5fe17d4a51f3a9c1a60f9869,,,,,,,,,,,,,,,,,,,5,PF,,6,3.274,,,,,,,,,,,,,,,,,,,,,,,,,,,,,,,,,,100,61,1,0,0,response1disk,9,9,18,9,1,0,0,rectangle,18,9,1,0,0,,0,"[124,294,130,177,260,152,65,59,314,58,174,199,121,93,51,41,63,134,169,141]",18,9,1,0,0,0,8,8,136,1,,,,,,,,,,,,,,,,,,,,,,,
,,,,,,,,,,,,,,,,,,,,,,,,,,,,,,,,,,,,,,,,,,,5d891cd0a592de000185ca5b,5fe192a9eb5270c319c108e6,2020-12-22_07h31.17.015,FlowerSimilarity_Experiment,2020.1.2,Win32,60,5fe17d4a51f3a9c1a60f9869,,,,,,,,,,,,,,,,,,,5,FF,,0,2.424,,,,,,,,,,,,,,,,,,,,,,,,,,,,,,,,,,-67,109,1,0,0,response7disk,8,10,-3,-1,1,0,0,rectangle,-3,-1,1,0,0,,7,"[124,294,130,177,260,152,65,59,314,58,174,199,121,93,51,41,63,134,169,141]",-3,-1,1,0,0,0,9,9,16,1,,,,,,,,,,,,,,,,,,,,,,,
,,,,,,,,,,,,,,,,,,,,,,,,,,,,,,,,,,,,,,,,,,,5d891cd0a592de000185ca5b,5fe192a9eb5270c319c108e6,2020-12-22_07h31.17.015,FlowerSimilarity_Experiment,2020.1.2,Win32,60,5fe17d4a51f3a9c1a60f9869,,,,,,,,,,,,,,,,,,,8,FF,,5,3.399,,,,,,,,,,,,,,,,,,,,,,,,,,,,,,,,,,116,-53,1,0,0,response3disk,2,11,36,-3,1,0,0,rectangle,36,-3,1,0,0,,3,"[124,294,130,177,260,152,65,59,314,58,174,199,121,93,51,41,63,134,169,141]",36,-3,1,0,0,0,10,10,22,1,,,,,,,,,,,,,,,,,,,,,,,
,,,,,,,,,,,,,,,,,,,,,,,,,,,,,,,,,,,,,,,,,,,5d891cd0a592de000185ca5b,5fe192a9eb5270c319c108e6,2020-12-22_07h31.17.015,FlowerSimilarity_Experiment,2020.1.2,Win32,60,5fe17d4a51f3a9c1a60f9869,,,,,,,,,,,,,,,,,,,5,FF,,5,1.256,,,,,,,,,,,,,,,,,,,,,,,,,,,,,,,,,,95,-47,1,0,0,response3disk,2,12,29,-8,1,0,0,rectangle,29,-8,1,0,0,,0,"[124,294,130,177,260,152,65,59,314,58,174,199,121,93,51,41,63,134,169,141]",29,-8,1,0,0,0,11,11,55,1,,,,,,,,,,,,,,,,,,,,,,,
,,,,,,,,,,,,,,,,,,,,,,,,,,,,,,,,,,,,,,,,,,,5d891cd0a592de000185ca5b,5fe192a9eb5270c319c108e6,2020-12-22_07h31.17.015,FlowerSimilarity_Experiment,2020.1.2,Win32,60,5fe17d4a51f3a9c1a60f9869,,,,,,,,,,,,,,,,,,,6,FF,,5,1.639,,,,,,,,,,,,,,,,,,,,,,,,,,,,,,,,,,121,-45,1,0,0,response3disk,8,13,24,-5,1,0,0,rectangle,24,-5,1,0,0,,0,"[124,294,130,177,260,152,65,59,314,58,174,199,121,93,51,41,63,134,169,141]",24,-5,1,0,0,0,12,12,133,1,,,,,,,,,,,,,,,,,,,,,,,
,,,,,,,,,,,,,,,,,,,,,,,,,,,,,,,,,,,,,,,,,,,5d891cd0a592de000185ca5b,5fe192a9eb5270c319c108e6,2020-12-22_07h31.17.015,FlowerSimilarity_Experiment,2020.1.2,Win32,60,5fe17d4a51f3a9c1a60f9869,,,,,,,,,,,,,,,,,,,5,FF,,5,1.589,,,,,,,,,,,,,,,,,,,,,,,,,,,,,,,,,,95,-59,1,0,0,response3disk,3,14,22,-9,1,0,0,rectangle,22,-9,1,0,0,,0,"[124,294,130,177,260,152,65,59,314,58,174,199,121,93,51,41,63,134,169,141]",22,-9,1,0,0,0,13,13,25,1,,,,,,,,,,,,,,,,,,,,,,,
,,,,,,,,,,,,,,,,,,,,,,,,,,,,,,,,,,,,,,,,,,,5d891cd0a592de000185ca5b,5fe192a9eb5270c319c108e6,2020-12-22_07h31.17.015,FlowerSimilarity_Experiment,2020.1.2,Win32,60,5fe17d4a51f3a9c1a60f9869,,,,,,,,,,,,,,,,,,,8,PF,,7,3.361,,,,,,,,,,,,,,,,,,,,,,,,,,,,,,,,,,60,109,1,0,0,response1disk,7,15,20,-1,1,0,0,rectangle,20,-1,1,0,0,,3,"[124,294,130,177,260,152,65,59,314,58,174,199,121,93,51,41,63,134,169,141]",20,-1,1,0,0,0,14,14,23,1,,,,,,,,,,,,,,,,,,,,,,,
,,,,,,,,,,,,,,,,,,,,,,,,,,,,,,,,,,,,,,,,,,,5d891cd0a592de000185ca5b,5fe192a9eb5270c319c108e6,2020-12-22_07h31.17.015,FlowerSimilarity_Experiment,2020.1.2,Win32,60,5fe17d4a51f3a9c1a60f9869,,,,,,,,,,,,,,,,,,,8,PF,,7,1.222,,,,,,,,,,,,,,,,,,,,,,,,,,,,,,,,,,49,100,1,0,0,response1disk,4,16,25,2,1,0,0,rectangle,25,2,1,0,0,,4,"[124,294,130,177,260,152,65,59,314,58,174,199,121,93,51,41,63,134,169,141]",25,2,1,0,0,0,15,15,78,1,,,,,,,,,,,,,,,,,,,,,,,
,,,,,,,,,,,,,,,,,,,,,,,,,,,,,,,,,,,,,,,,,,,5d891cd0a592de000185ca5b,5fe192a9eb5270c319c108e6,2020-12-22_07h31.17.015,FlowerSimilarity_Experiment,2020.1.2,Win32,60,5fe17d4a51f3a9c1a60f9869,,,,,,,,,,,,,,,,,,,1,PF,,5,1.627,,,,,,,,,,,,,,,,,,,,,,,,,,,,,,,,,,106,-49,1,0,0,response3disk,9,17,18,-6,1,0,0,rectangle,18,-6,1,0,0,,0,"[124,294,130,177,260,152,65,59,314,58,174,199,121,93,51,41,63,134,169,141]",18,-6,1,0,0,0,16,16,15,1,,,,,,,,,,,,,,,,,,,,,,,
,,,,,,,,,,,,,,,,,,,,,,,,,,,,,,,,,,,,,,,,,,,5d891cd0a592de000185ca5b,5fe192a9eb5270c319c108e6,2020-12-22_07h31.17.015,FlowerSimilarity_Experiment,2020.1.2,Win32,60,5fe17d4a51f3a9c1a60f9869,,,,,,,,,,,,,,,,,,,2,FF,,6,3.453,,,,,,,,,,,,,,,,,,,,,,,,,,,,,,,,,,110,78,1,0,0,response1disk,5,18,18,15,1,0,0,rectangle,18,15,1,0,0,,4,"[124,294,130,177,260,152,65,59,314,58,174,199,121,93,51,41,63,134,169,141]",18,15,1,0,0,0,17,17,80,1,,,,,,,,,,,,,,,,,,,,,,,
,,,,,,,,,,,,,,,,,,,,,,,,,,,,,,,,,,,,,,,,,,,5d891cd0a592de000185ca5b,5fe192a9eb5270c319c108e6,2020-12-22_07h31.17.015,FlowerSimilarity_Experiment,2020.1.2,Win32,60,5fe17d4a51f3a9c1a60f9869,,,,,,,,,,,,,,,,,,,6,FF,,7,2.165,,,,,,,,,,,,,,,,,,,,,,,,,,,,,,,,,,60,92,1,0,0,response1disk,7,19,5,-4,1,0,0,rectangle,5,-4,1,0,0,,2,"[124,294,130,177,260,152,65,59,314,58,174,199,121,93,51,41,63,134,169,141]",5,-4,1,0,0,0,18,18,18,1,,,,,,,,,,,,,,,,,,,,,,,
,,,,,,,,,,,,,,,,,,,,,,,,,,,,,,,,,,,,,,,,,,,5d891cd0a592de000185ca5b,5fe192a9eb5270c319c108e6,2020-12-22_07h31.17.015,FlowerSimilarity_Experiment,2020.1.2,Win32,60,5fe17d4a51f3a9c1a60f9869,,,,,,,,,,,,,,,,,,,9,PF,,7,1.548,,,,,,,,,,,,,,,,,,,,,,,,,,,,,,,,,,60,102,1,0,0,response1disk,3,20,27,6,1,0,0,rectangle,27,6,1,0,0,,6,"[124,294,130,177,260,152,65,59,314,58,174,199,121,93,51,41,63,134,169,141]",27,6,1,0,0,0,19,19,119,1,,,,,,,,,,,,,,,,,,,,,,,
,,,,,,,,,,,,,,,,,,,,,,,,,,,,,,,,,,,,,,,,,,,5d891cd0a592de000185ca5b,5fe192a9eb5270c319c108e6,2020-12-22_07h31.17.015,FlowerSimilarity_Experiment,2020.1.2,Win32,60,5fe17d4a51f3a9c1a60f9869,,,,,,,,,,,,,,,,,,,2,FF,,6,1.561,,,,,,,,,,,,,,,,,,,,,,,,,,,,,,,,,,110,57,1,0,0,response1disk,1,21,7,2,1,0,0,rectangle,7,2,1,0,0,,5,"[124,294,130,177,260,152,65,59,314,58,174,199,121,93,51,41,63,134,169,141]",7,2,1,0,0,0,20,20,85,1,,,,,,,,,,,,,,,,,,,,,,,
,,,,,,,,,,,,,,,,,,,,,,,,,,,,,,,,,,,,,,,,,,,5d891cd0a592de000185ca5b,5fe192a9eb5270c319c108e6,2020-12-22_07h31.17.015,FlowerSimilarity_Experiment,2020.1.2,Win32,60,5fe17d4a51f3a9c1a60f9869,,,,,,,,,,,,,,,,,,,9,FF,,6,1.552,,,,,,,,,,,,,,,,,,,,,,,,,,,,,,,,,,103,67,1,0,0,response1disk,7,22,16,4,1,0,0,rectangle,16,4,1,0,0,,2,"[124,294,130,177,260,152,65,59,314,58,174,199,121,93,51,41,63,134,169,141]",16,4,1,0,0,0,21,21,100,1,,,,,,,,,,,,,,,,,,,,,,,
,,,,,,,,,,,,,,,,,,,,,,,,,,,,,,,,,,,,,,,,,,,5d891cd0a592de000185ca5b,5fe192a9eb5270c319c108e6,2020-12-22_07h31.17.015,FlowerSimilarity_Experiment,2020.1.2,Win32,60,5fe17d4a51f3a9c1a60f9869,,,,,,,,,,,,,,,,,,,7,FF,,7,2.728,,,,,,,,,,,,,,,,,,,,,,,,,,,,,,,,,,73,109,1,0,0,response1disk,5,23,34,7,1,0,0,rectangle,34,7,1,0,0,,1,"[124,294,130,177,260,152,65,59,314,58,174,199,121,93,51,41,63,134,169,141]",34,7,1,0,0,0,22,22,156,1,,,,,,,,,,,,,,,,,,,,,,,
,,,,,,,,,,,,,,,,,,,,,,,,,,,,,,,,,,,,,,,,,,,5d891cd0a592de000185ca5b,5fe192a9eb5270c319c108e6,2020-12-22_07h31.17.015,FlowerSimilarity_Experiment,2020.1.2,Win32,60,5fe17d4a51f3a9c1a60f9869,,,,,,,,,,,,,,,,,,,9,FF,,3,1.923,,,,,,,,,,,,,,,,,,,,,,,,,,,,,,,,,,-44,-121,1,0,0,response5disk,9,24,16,4,1,0,0,rectangle,16,4,1,0,0,,4,"[124,294,130,177,260,152,65,59,314,58,174,199,121,93,51,41,63,134,169,141]",16,4,1,0,0,0,23,23,17,1,,,,,,,,,,,,,,,,,,,,,,,
,,,,,,,,,,,,,,,,,,,,,,,,,,,,,,,,,,,,,,,,,,,5d891cd0a592de000185ca5b,5fe192a9eb5270c319c108e6,2020-12-22_07h31.17.015,FlowerSimilarity_Experiment,2020.1.2,Win32,60,5fe17d4a51f3a9c1a60f9869,,,,,,,,,,,,,,,,,,,1,PF,,5,2.332,,,,,,,,,,,,,,,,,,,,,,,,,,,,,,,,,,117,-48,1,0,0,response3disk,7,25,1,1,1,0,0,rectangle,1,1,1,0,0,,5,"[124,294,130,177,260,152,65,59,314,58,174,199,121,93,51,41,63,134,169,141]",1,1,1,0,0,0,24,24,150,1,,,,,,,,,,,,,,,,,,,,,,,
,,,,,,,,,,,,,,,,,,,,,,,,,,,,,,,,,,,,,,,,,,,5d891cd0a592de000185ca5b,5fe192a9eb5270c319c108e6,2020-12-22_07h31.17.015,FlowerSimilarity_Experiment,2020.1.2,Win32,60,5fe17d4a51f3a9c1a60f9869,,,,,,,,,,,,,,,,,,,1,FF,,5,1.403,,,,,,,,,,,,,,,,,,,,,,,,,,,,,,,,,,97,-61,1,0,0,response3disk,7,26,15,0,1,0,0,rectangle,15,0,1,0,0,,7,"[124,294,130,177,260,152,65,59,314,58,174,199,121,93,51,41,63,134,169,141]",15,0,1,0,0,0,25,25,137,1,,,,,,,,,,,,,,,,,,,,,,,
,,,,,,,,,,,,,,,,,,,,,,,,,,,,,,,,,,,,,,,,,,,5d891cd0a592de000185ca5b,5fe192a9eb5270c319c108e6,2020-12-22_07h31.17.015,FlowerSimilarity_Experiment,2020.1.2,Win32,60,5fe17d4a51f3a9c1a60f9869,,,,,,,,,,,,,,,,,,,8,FF,,7,2.398,,,,,,,,,,,,,,,,,,,,,,,,,,,,,,,,,,57,99,1,0,0,response1disk,4,27,20,9,1,0,0,rectangle,20,9,1,0,0,,5,"[124,294,130,177,260,152,65,59,314,58,174,199,121,93,51,41,63,134,169,141]",20,9,1,0,0,0,26,26,88,1,,,,,,,,,,,,,,,,,,,,,,,
,,,,,,,,,,,,,,,,,,,,,,,,,,,,,,,,,,,,,,,,,,,5d891cd0a592de000185ca5b,5fe192a9eb5270c319c108e6,2020-12-22_07h31.17.015,FlowerSimilarity_Experiment,2020.1.2,Win32,60,5fe17d4a51f3a9c1a60f9869,,,,,,,,,,,,,,,,,,,3,PF,,5,1.677,,,,,,,,,,,,,,,,,,,,,,,,,,,,,,,,,,113,-36,1,0,0,response3disk,8,28,-10,-6,1,0,0,rectangle,-10,-6,1,0,0,,5,"[124,294,130,177,260,152,65,59,314,58,174,199,121,93,51,41,63,134,169,141]",-10,-6,1,0,0,0,27,27,3,1,,,,,,,,,,,,,,,,,,,,,,,
,,,,,,,,,,,,,,,,,,,,,,,,,,,,,,,,,,,,,,,,,,,5d891cd0a592de000185ca5b,5fe192a9eb5270c319c108e6,2020-12-22_07h31.17.015,FlowerSimilarity_Experiment,2020.1.2,Win32,60,5fe17d4a51f3a9c1a60f9869,,,,,,,,,,,,,,,,,,,1,FF,,7,1.577,,,,,,,,,,,,,,,,,,,,,,,,,,,,,,,,,,68,97,1,0,0,response1disk,6,29,-12,10,1,0,0,rectangle,-12,10,1,0,0,,7,"[124,294,130,177,260,152,65,59,314,58,174,199,121,93,51,41,63,134,169,141]",-12,10,1,0,0,0,28,28,58,1,,,,,,,,,,,,,,,,,,,,,,,
,,,,,,,,,,,,,,,,,,,,,,,,,,,,,,,,,,,,,,,,,,,5d891cd0a592de000185ca5b,5fe192a9eb5270c319c108e6,2020-12-22_07h31.17.015,FlowerSimilarity_Experiment,2020.1.2,Win32,60,5fe17d4a51f3a9c1a60f9869,,,,,,,,,,,,,,,,,,,3,FF,,5,2.419,,,,,,,,,,,,,,,,,,,,,,,,,,,,,,,,,,106,-62,1,0,0,response3disk,8,30,0,2,1,0,0,rectangle,0,2,1,0,0,,0,"[124,294,130,177,260,152,65,59,314,58,174,199,121,93,51,41,63,134,169,141]",0,2,1,0,0,0,29,29,44,1,,,,,,,,,,,,,,,,,,,,,,,
,,,,,,,,,,,,,,,,,,,,,,,,,,,,,,,,,,,,,,,,,,,5d891cd0a592de000185ca5b,5fe192a9eb5270c319c108e6,2020-12-22_07h31.17.015,FlowerSimilarity_Experiment,2020.1.2,Win32,60,5fe17d4a51f3a9c1a60f9869,,,,,,,,,,,,,,,,,,,9,FF,,7,2.002,,,,,,,,,,,,,,,,,,,,,,,,,,,,,,,,,,62,95,1,0,0,response1disk,4,31,14,-7,1,0,0,rectangle,14,-7,1,0,0,,4,"[124,294,130,177,260,152,65,59,314,58,174,199,121,93,51,41,63,134,169,141]",14,-7,1,0,0,0,30,30,60,1,,,,,,,,,,,,,,,,,,,,,,,
,,,,,,,,,,,,,,,,,,,,,,,,,,,,,,,,,,,,,,,,,,,5d891cd0a592de000185ca5b,5fe192a9eb5270c319c108e6,2020-12-22_07h31.17.015,FlowerSimilarity_Experiment,2020.1.2,Win32,60,5fe17d4a51f3a9c1a60f9869,,,,,,,,,,,,,,,,,,,2,PF,,6,2.228,,,,,,,,,,,,,,,,,,,,,,,,,,,,,,,,,,102,63,1,0,0,response1disk,7,32,-2,-4,1,0,0,rectangle,-2,-4,1,0,0,,4,"[124,294,130,177,260,152,65,59,314,58,174,199,121,93,51,41,63,134,169,141]",-2,-4,1,0,0,0,31,31,107,1,,,,,,,,,,,,,,,,,,,,,,,
,,,,,,,,,,,,,,,,,,,,,,,,,,,,,,,,,,,,,,,,,,,5d891cd0a592de000185ca5b,5fe192a9eb5270c319c108e6,2020-12-22_07h31.17.015,FlowerSimilarity_Experiment,2020.1.2,Win32,60,5fe17d4a51f3a9c1a60f9869,,,,,,,,,,,,,,,,,,,7,PF,,0,1.026,,,,,,,,,,,,,,,,,,,,,,,,,,,,,,,,,,-51,104,1,0,0,response7disk,7,33,-37,12,1,0,0,rectangle,-37,12,1,0,0,,4,"[124,294,130,177,260,152,65,59,314,58,174,199,121,93,51,41,63,134,169,141]",-37,12,1,0,0,0,32,32,51,1,,,,,,,,,,,,,,,,,,,,,,,
,,,,,,,,,,,,,,,,,,,,,,,,,,,,,,,,,,,,,,,,,,,5d891cd0a592de000185ca5b,5fe192a9eb5270c319c108e6,2020-12-22_07h31.17.015,FlowerSimilarity_Experiment,2020.1.2,Win32,60,5fe17d4a51f3a9c1a60f9869,,,,,,,,,,,,,,,,,,,8,FF,,0,1.259,,,,,,,,,,,,,,,,,,,,,,,,,,,,,,,,,,-32,98,1,0,0,response7disk,8,34,3,3,1,0,0,rectangle,3,3,1,0,0,,6,"[124,294,130,177,260,152,65,59,314,58,174,199,121,93,51,41,63,134,169,141]",3,3,1,0,0,0,33,33,48,1,,,,,,,,,,,,,,,,,,,,,,,
,,,,,,,,,,,,,,,,,,,,,,,,,,,,,,,,,,,,,,,,,,,5d891cd0a592de000185ca5b,5fe192a9eb5270c319c108e6,2020-12-22_07h31.17.015,FlowerSimilarity_Experiment,2020.1.2,Win32,60,5fe17d4a51f3a9c1a60f9869,,,,,,,,,,,,,,,,,,,8,FF,,3,1.659,,,,,,,,,,,,,,,,,,,,,,,,,,,,,,,,,,-40,-83,1,0,0,response5disk,3,35,12,5,1,0,0,rectangle,12,5,1,0,0,,2,"[124,294,130,177,260,152,65,59,314,58,174,199,121,93,51,41,63,134,169,141]",12,5,1,0,0,0,34,34,154,1,,,,,,,,,,,,,,,,,,,,,,,
,,,,,,,,,,,,,,,,,,,,,,,,,,,,,,,,,,,,,,,,,,,5d891cd0a592de000185ca5b,5fe192a9eb5270c319c108e6,2020-12-22_07h31.17.015,FlowerSimilarity_Experiment,2020.1.2,Win32,60,5fe17d4a51f3a9c1a60f9869,,,,,,,,,,,,,,,,,,,7,FF,,2,1.72,,,,,,,,,,,,,,,,,,,,,,,,,,,,,,,,,,-110,-47,1,0,0,response5disk,3,36,6,8,1,0,0,rectangle,6,8,1,0,0,,2,"[124,294,130,177,260,152,65,59,314,58,174,199,121,93,51,41,63,134,169,141]",6,8,1,0,0,0,35,35,73,1,,,,,,,,,,,,,,,,,,,,,,,
,,,,,,,,,,,,,,,,,,,,,,,,,,,,,,,,,,,,,,,,,,,5d891cd0a592de000185ca5b,5fe192a9eb5270c319c108e6,2020-12-22_07h31.17.015,FlowerSimilarity_Experiment,2020.1.2,Win32,60,5fe17d4a51f3a9c1a60f9869,,,,,,,,,,,,,,,,,,,3,FF,,2,1.277,,,,,,,,,,,,,,,,,,,,,,,,,,,,,,,,,,-121,-52,1,0,0,response5disk,7,37,-12,-7,1,0,0,rectangle,-12,-7,1,0,0,,6,"[124,294,130,177,260,152,65,59,314,58,174,199,121,93,51,41,63,134,169,141]",-12,-7,1,0,0,0,36,36,118,1,,,,,,,,,,,,,,,,,,,,,,,
,,,,,,,,,,,,,,,,,,,,,,,,,,,,,,,,,,,,,,,,,,,5d891cd0a592de000185ca5b,5fe192a9eb5270c319c108e6,2020-12-22_07h31.17.015,FlowerSimilarity_Experiment,2020.1.2,Win32,60,5fe17d4a51f3a9c1a60f9869,,,,,,,,,,,,,,,,,,,4,FF,,7,1.514,,,,,,,,,,,,,,,,,,,,,,,,,,,,,,,,,,60,86,1,0,0,response1disk,3,38,5,1,1,0,0,rectangle,5,1,1,0,0,,5,"[124,294,130,177,260,152,65,59,314,58,174,199,121,93,51,41,63,134,169,141]",5,1,1,0,0,0,37,37,77,1,,,,,,,,,,,,,,,,,,,,,,,
,,,,,,,,,,,,,,,,,,,,,,,,,,,,,,,,,,,,,,,,,,,5d891cd0a592de000185ca5b,5fe192a9eb5270c319c108e6,2020-12-22_07h31.17.015,FlowerSimilarity_Experiment,2020.1.2,Win32,60,5fe17d4a51f3a9c1a60f9869,,,,,,,,,,,,,,,,,,,9,FF,,5,1.852,,,,,,,,,,,,,,,,,,,,,,,,,,,,,,,,,,101,-77,1,0,0,response3disk,1,39,14,-5,1,0,0,rectangle,14,-5,1,0,0,,4,"[124,294,130,177,260,152,65,59,314,58,174,199,121,93,51,41,63,134,169,141]",14,-5,1,0,0,0,38,38,111,1,,,,,,,,,,,,,,,,,,,,,,,
,,,,,,,,,,,,,,,,,,,,,,,,,,,,,,,,,,,,,,,,,,,5d891cd0a592de000185ca5b,5fe192a9eb5270c319c108e6,2020-12-22_07h31.17.015,FlowerSimilarity_Experiment,2020.1.2,Win32,60,5fe17d4a51f3a9c1a60f9869,,,,,,,,,,,,,,,,,,,3,FF,,2,1.468,,,,,,,,,,,,,,,,,,,,,,,,,,,,,,,,,,-96,-45,1,0,0,response5disk,3,40,14,5,1,0,0,rectangle,14,5,1,0,0,,7,"[124,294,130,177,260,152,65,59,314,58,174,199,121,93,51,41,63,134,169,141]",14,5,1,0,0,0,39,39,68,1,,,,,,,,,,,,,,,,,,,,,,,
,,,,,,,,,,,,,,,,,,,,,,,,,,,,,,,,,,,,,,,,,,,5d891cd0a592de000185ca5b,5fe192a9eb5270c319c108e6,2020-12-22_07h31.17.015,FlowerSimilarity_Experiment,2020.1.2,Win32,60,5fe17d4a51f3a9c1a60f9869,,,,,,,,,,,,,,,,,,,1,PF,,5,1.94,,,,,,,,,,,,,,,,,,,,,,,,,,,,,,,,,,111,-49,1,0,0,response3disk,3,41,-25,-9,1,0,0,rectangle,-111,56,1,0,0,1,1,"[124,294,130,177,260,152,65,59,314,58,174,199,121,93,51,41,63,134,169,141]",9,6,1,0,0,0,40,40,1,1,response7disk_3,rectangle,,,,,,,,,,,,,,,,,,,,,
,,,,,,,,,,,,,,,,,,,,,,,,,,,,,,,,,,,,,,,,,,,5d891cd0a592de000185ca5b,5fe192a9eb5270c319c108e6,2020-12-22_07h31.17.015,FlowerSimilarity_Experiment,2020.1.2,Win32,60,5fe17d4a51f3a9c1a60f9869,,,,,,,,,,,,,,,,,,,7,PF,,3,1.418,,,,,,,,,,,,,,,,,,,,,,,,,,,,,,,,,,-70,-90,1,0,0,response5disk,3,42,-14,-7,1,0,0,rectangle,-14,-7,1,0,0,1,1,"[124,294,130,177,260,152,65,59,314,58,174,199,121,93,51,41,63,134,169,141]",-14,-7,1,0,0,0,41,41,81,1,,,,,,,,,,,,,,,,,,,,,,,
,,,,,,,,,,,,,,,,,,,,,,,,,,,,,,,,,,,,,,,,,,,5d891cd0a592de000185ca5b,5fe192a9eb5270c319c108e6,2020-12-22_07h31.17.015,FlowerSimilarity_Experiment,2020.1.2,Win32,60,5fe17d4a51f3a9c1a60f9869,,,,,,,,,,,,,,,,,,,1,FF,,6,7.914,,,,,,,,,,,,,,,,,,,,,,,,,,,,,,,,,,147,66,1,0,0,response1disk,2,43,-21,-11,1,0,0,rectangle,-21,-11,1,0,0,1,1,"[124,294,130,177,260,152,65,59,314,58,174,199,121,93,51,41,63,134,169,141]",-21,-11,1,0,0,0,42,42,2,1,,,,,,,,,,,,,,,,,,,,,,,
,,,,,,,,,,,,,,,,,,,,,,,,,,,,,,,,,,,,,,,,,,,5d891cd0a592de000185ca5b,5fe192a9eb5270c319c108e6,2020-12-22_07h31.17.015,FlowerSimilarity_Experiment,2020.1.2,Win32,60,5fe17d4a51f3a9c1a60f9869,,,,,,,,,,,,,,,,,,,9,PF,,6,0.967,,,,,,,,,,,,,,,,,,,,,,,,,,,,,,,,,,116,55,1,0,0,response1disk,4,44,2,10,1,0,0,rectangle,2,10,1,0,0,1,2,"[124,294,130,177,260,152,65,59,314,58,174,199,121,93,51,41,63,134,169,141]",2,10,1,0,0,0,43,43,114,1,,,,,,,,,,,,,,,,,,,,,,,
,,,,,,,,,,,,,,,,,,,,,,,,,,,,,,,,,,,,,,,,,,,5d891cd0a592de000185ca5b,5fe192a9eb5270c319c108e6,2020-12-22_07h31.17.015,FlowerSimilarity_Experiment,2020.1.2,Win32,60,5fe17d4a51f3a9c1a60f9869,,,,,,,,,,,,,,,,,,,2,PF,,5,1.327,,,,,,,,,,,,,,,,,,,,,,,,,,,,,,,,,,98,-38,1,0,0,response3disk,5,45,19,12,1,0,0,rectangle,19,12,1,0,0,1,4,"[124,294,130,177,260,152,65,59,314,58,174,199,121,93,51,41,63,134,169,141]",19,12,1,0,0,0,44,44,147,1,,,,,,,,,,,,,,,,,,,,,,,
,,,,,,,,,,,,,,,,,,,,,,,,,,,,,,,,,,,,,,,,,,,5d891cd0a592de000185ca5b,5fe192a9eb5270c319c108e6,2020-12-22_07h31.17.015,FlowerSimilarity_Experiment,2020.1.2,Win32,60,5fe17d4a51f3a9c1a60f9869,,,,,,,,,,,,,,,,,,,7,PF,,7,1.907,,,,,,,,,,,,,,,,,,,,,,,,,,,,,,,,,,61,106,1,0,0,response1disk,4,46,28,2,1,0,0,rectangle,28,2,1,0,0,1,3,"[124,294,130,177,260,152,65,59,314,58,174,199,121,93,51,41,63,134,169,141]",28,2,1,0,0,0,45,45,43,1,,,,,,,,,,,,,,,,,,,,,,,
,,,,,,,,,,,,,,,,,,,,,,,,,,,,,,,,,,,,,,,,,,,5d891cd0a592de000185ca5b,5fe192a9eb5270c319c108e6,2020-12-22_07h31.17.015,FlowerSimilarity_Experiment,2020.1.2,Win32,60,5fe17d4a51f3a9c1a60f9869,,,,,,,,,,,,,,,,,,,4,PF,,6,0.939,,,,,,,,,,,,,,,,,,,,,,,,,,,,,,,,,,116,55,1,0,0,response1disk,7,47,-5,5,1,0,0,rectangle,-5,5,1,0,0,1,0,"[124,294,130,177,260,152,65,59,314,58,174,199,121,93,51,41,63,134,169,141]",-5,5,1,0,0,0,46,46,38,1,,,,,,,,,,,,,,,,,,,,,,,
,,,,,,,,,,,,,,,,,,,,,,,,,,,,,,,,,,,,,,,,,,,5d891cd0a592de000185ca5b,5fe192a9eb5270c319c108e6,2020-12-22_07h31.17.015,FlowerSimilarity_Experiment,2020.1.2,Win32,60,5fe17d4a51f3a9c1a60f9869,,,,,,,,,,,,,,,,,,,3,PF,,6,0.876,,,,,,,,,,,,,,,,,,,,,,,,,,,,,,,,,,99,48,1,0,0,response1disk,4,48,16,3,1,0,0,rectangle,16,3,1,0,0,1,4,"[124,294,130,177,260,152,65,59,314,58,174,199,121,93,51,41,63,134,169,141]",16,3,1,0,0,0,47,47,30,1,,,,,,,,,,,,,,,,,,,,,,,
,,,,,,,,,,,,,,,,,,,,,,,,,,,,,,,,,,,,,,,,,,,5d891cd0a592de000185ca5b,5fe192a9eb5270c319c108e6,2020-12-22_07h31.17.015,FlowerSimilarity_Experiment,2020.1.2,Win32,60,5fe17d4a51f3a9c1a60f9869,,,,,,,,,,,,,,,,,,,3,PF,,7,0.73,,,,,,,,,,,,,,,,,,,,,,,,,,,,,,,,,,60,100,1,0,0,response1disk,6,49,33,14,1,0,0,rectangle,33,14,1,0,0,1,3,"[124,294,130,177,260,152,65,59,314,58,174,199,121,93,51,41,63,134,169,141]",33,14,1,0,0,0,48,48,47,1,,,,,,,,,,,,,,,,,,,,,,,
,,,,,,,,,,,,,,,,,,,,,,,,,,,,,,,,,,,,,,,,,,,5d891cd0a592de000185ca5b,5fe192a9eb5270c319c108e6,2020-12-22_07h31.17.015,FlowerSimilarity_Experiment,2020.1.2,Win32,60,5fe17d4a51f3a9c1a60f9869,,,,,,,,,,,,,,,,,,,7,PF,,7,1.335,,,,,,,,,,,,,,,,,,,,,,,,,,,,,,,,,,53,97,1,0,0,response1disk,8,50,7,5,1,0,0,rectangle,7,5,1,0,0,1,2,"[124,294,130,177,260,152,65,59,314,58,174,199,121,93,51,41,63,134,169,141]",7,5,1,0,0,0,49,49,140,1,,,,,,,,,,,,,,,,,,,,,,,
,,,,,,,,,,,,,,,,,,,,,,,,,,,,,,,,,,,,,,,,,,,5d891cd0a592de000185ca5b,5fe192a9eb5270c319c108e6,2020-12-22_07h31.17.015,FlowerSimilarity_Experiment,2020.1.2,Win32,60,5fe17d4a51f3a9c1a60f9869,,,,,,,,,,,,,,,,,,,2,FF,,0,1.285,,,,,,,,,,,,,,,,,,,,,,,,,,,,,,,,,,-58,102,1,0,0,response7disk,2,51,-18,19,1,0,0,rectangle,135,43,1,0,0,6,6,"[124,294,130,177,260,152,65,59,314,58,174,199,121,93,51,41,63,134,169,141]",22,8,1,0,0,0,50,50,142,1,response1disk_3,rectangle,,,,,,,,,,,,,,,,,,,,,
,,,,,,,,,,,,,,,,,,,,,,,,,,,,,,,,,,,,,,,,,,,5d891cd0a592de000185ca5b,5fe192a9eb5270c319c108e6,2020-12-22_07h31.17.015,FlowerSimilarity_Experiment,2020.1.2,Win32,60,5fe17d4a51f3a9c1a60f9869,,,,,,,,,,,,,,,,,,,1,FF,,7,1.86,,,,,,,,,,,,,,,,,,,,,,,,,,,,,,,,,,53,99,1,0,0,response1disk,4,52,1,15,1,0,0,rectangle,1,15,1,0,0,6,0,"[124,294,130,177,260,152,65,59,314,58,174,199,121,93,51,41,63,134,169,141]",1,15,1,0,0,0,51,51,135,1,,,,,,,,,,,,,,,,,,,,,,,
,,,,,,,,,,,,,,,,,,,,,,,,,,,,,,,,,,,,,,,,,,,5d891cd0a592de000185ca5b,5fe192a9eb5270c319c108e6,2020-12-22_07h31.17.015,FlowerSimilarity_Experiment,2020.1.2,Win32,60,5fe17d4a51f3a9c1a60f9869,,,,,,,,,,,,,,,,,,,3,FF,,5,1.56,,,,,,,,,,,,,,,,,,,,,,,,,,,,,,,,,,124,-48,1,0,0,response3disk,5,53,33,7,1,0,0,rectangle,33,7,1,0,0,6,4,"[124,294,130,177,260,152,65,59,314,58,174,199,121,93,51,41,63,134,169,141]",33,7,1,0,0,0,52,52,101,1,,,,,,,,,,,,,,,,,,,,,,,
,,,,,,,,,,,,,,,,,,,,,,,,,,,,,,,,,,,,,,,,,,,5d891cd0a592de000185ca5b,5fe192a9eb5270c319c108e6,2020-12-22_07h31.17.015,FlowerSimilarity_Experiment,2020.1.2,Win32,60,5fe17d4a51f3a9c1a60f9869,,,,,,,,,,,,,,,,,,,1,FF,,5,1.001,,,,,,,,,,,,,,,,,,,,,,,,,,,,,,,,,,120,-50,1,0,0,response3disk,8,54,21,-2,1,0,0,rectangle,21,-2,1,0,0,6,0,"[124,294,130,177,260,152,65,59,314,58,174,199,121,93,51,41,63,134,169,141]",21,-2,1,0,0,0,53,53,27,1,,,,,,,,,,,,,,,,,,,,,,,
,,,,,,,,,,,,,,,,,,,,,,,,,,,,,,,,,,,,,,,,,,,5d891cd0a592de000185ca5b,5fe192a9eb5270c319c108e6,2020-12-22_07h31.17.015,FlowerSimilarity_Experiment,2020.1.2,Win32,60,5fe17d4a51f3a9c1a60f9869,,,,,,,,,,,,,,,,,,,6,FF,,7,1.519,,,,,,,,,,,,,,,,,,,,,,,,,,,,,,,,,,59,106,1,0,0,response1disk,2,55,18,-2,1,0,0,rectangle,18,-2,1,0,0,6,2,"[124,294,130,177,260,152,65,59,314,58,174,199,121,93,51,41,63,134,169,141]",18,-2,1,0,0,0,54,54,112,1,,,,,,,,,,,,,,,,,,,,,,,
,,,,,,,,,,,,,,,,,,,,,,,,,,,,,,,,,,,,,,,,,,,5d891cd0a592de000185ca5b,5fe192a9eb5270c319c108e6,2020-12-22_07h31.17.015,FlowerSimilarity_Experiment,2020.1.2,Win32,60,5fe17d4a51f3a9c1a60f9869,,,,,,,,,,,,,,,,,,,6,PF,,7,3.336,,,,,,,,,,,,,,,,,,,,,,,,,,,,,,,,,,56,103,1,0,0,response1disk,1,56,22,7,1,0,0,rectangle,22,7,1,0,0,6,7,"[124,294,130,177,260,152,65,59,314,58,174,199,121,93,51,41,63,134,169,141]",22,7,1,0,0,0,55,55,46,1,,,,,,,,,,,,,,,,,,,,,,,
,,,,,,,,,,,,,,,,,,,,,,,,,,,,,,,,,,,,,,,,,,,5d891cd0a592de000185ca5b,5fe192a9eb5270c319c108e6,2020-12-22_07h31.17.015,FlowerSimilarity_Experiment,2020.1.2,Win32,60,5fe17d4a51f3a9c1a60f9869,,,,,,,,,,,,,,,,,,,6,PF,,7,7.215,,,,,,,,,,,,,,,,,,,,,,,,,,,,,,,,,,56,89,1,0,0,response1disk,5,57,4,17,1,0,0,rectangle,4,17,1,0,0,6,7,"[124,294,130,177,260,152,65,59,314,58,174,199,121,93,51,41,63,134,169,141]",4,17,1,0,0,0,56,56,59,1,,,,,,,,,,,,,,,,,,,,,,,
,,,,,,,,,,,,,,,,,,,,,,,,,,,,,,,,,,,,,,,,,,,5d891cd0a592de000185ca5b,5fe192a9eb5270c319c108e6,2020-12-22_07h31.17.015,FlowerSimilarity_Experiment,2020.1.2,Win32,60,5fe17d4a51f3a9c1a60f9869,,,,,,,,,,,,,,,,,,,5,FF,,3,2.882,,,,,,,,,,,,,,,,,,,,,,,,,,,,,,,,,,-52,-122,1,0,0,response5disk,4,58,4,2,1,0,0,rectangle,-113,46,1,0,0,1,1,"[124,294,130,177,260,152,65,59,314,58,174,199,121,93,51,41,63,134,169,141]",-12,-6,1,0,0,0,57,57,8,1,response7disk_3,rectangle,,,,,,,,,,,,,,,,,,,,,
,,,,,,,,,,,,,,,,,,,,,,,,,,,,,,,,,,,,,,,,,,,5d891cd0a592de000185ca5b,5fe192a9eb5270c319c108e6,2020-12-22_07h31.17.015,FlowerSimilarity_Experiment,2020.1.2,Win32,60,5fe17d4a51f3a9c1a60f9869,,,,,,,,,,,,,,,,,,,7,FF,,7,3.215,,,,,,,,,,,,,,,,,,,,,,,,,,,,,,,,,,62,95,1,0,0,response1disk,6,59,23,2,1,0,0,rectangle,124,57,1,0,0,6,6,"[124,294,130,177,260,152,65,59,314,58,174,199,121,93,51,41,63,134,169,141]",30,3,1,0,0,0,58,58,31,1,response1disk_3,rectangle,,,,,,,,,,,,,,,,,,,,,
,,,,,,,,,,,,,,,,,,,,,,,,,,,,,,,,,,,,,,,,,,,5d891cd0a592de000185ca5b,5fe192a9eb5270c319c108e6,2020-12-22_07h31.17.015,FlowerSimilarity_Experiment,2020.1.2,Win32,60,5fe17d4a51f3a9c1a60f9869,,,,,,,,,,,,,,,,,,,2,PF,,6,1.368,,,,,,,,,,,,,,,,,,,,,,,,,,,,,,,,,,118,55,1,0,0,response1disk,6,60,-4,-1,1,0,0,rectangle,-4,-1,1,0,0,6,5,"[124,294,130,177,260,152,65,59,314,58,174,199,121,93,51,41,63,134,169,141]",-4,-1,1,0,0,0,59,59,113,1,,,,,,,,,,,,,,,,,,,,,,,
,,,,,,,,,,,,,,,,,,,,,,,,,,,,,,,,,,,,,,,,,,,5d891cd0a592de000185ca5b,5fe192a9eb5270c319c108e6,2020-12-22_07h31.17.015,FlowerSimilarity_Experiment,2020.1.2,Win32,60,5fe17d4a51f3a9c1a60f9869,,,,,,,,,,,,,,,,,,,5,PF,,6,0.847,,,,,,,,,,,,,,,,,,,,,,,,,,,,,,,,,,114,49,1,0,0,response1disk,2,61,7,-10,1,0,0,rectangle,7,-10,1,0,0,6,1,"[124,294,130,177,260,152,65,59,314,58,174,199,121,93,51,41,63,134,169,141]",7,-10,1,0,0,0,60,60,129,1,,,,,,,,,,,,,,,,,,,,,,,
,,,,,,,,,,,,,,,,,,,,,,,,,,,,,,,,,,,,,,,,,,,5d891cd0a592de000185ca5b,5fe192a9eb5270c319c108e6,2020-12-22_07h31.17.015,FlowerSimilarity_Experiment,2020.1.2,Win32,60,5fe17d4a51f3a9c1a60f9869,,,,,,,,,,,,,,,,,,,9,FF,,7,1.686,,,,,,,,,,,,,,,,,,,,,,,,,,,,,,,,,,61,103,1,0,0,response1disk,6,62,14,-4,1,0,0,rectangle,14,-4,1,0,0,6,0,"[124,294,130,177,260,152,65,59,314,58,174,199,121,93,51,41,63,134,169,141]",14,-4,1,0,0,0,61,61,117,1,,,,,,,,,,,,,,,,,,,,,,,
,,,,,,,,,,,,,,,,,,,,,,,,,,,,,,,,,,,,,,,,,,,5d891cd0a592de000185ca5b,5fe192a9eb5270c319c108e6,2020-12-22_07h31.17.015,FlowerSimilarity_Experiment,2020.1.2,Win32,60,5fe17d4a51f3a9c1a60f9869,,,,,,,,,,,,,,,,,,,9,PF,,0,1.235,,,,,,,,,,,,,,,,,,,,,,,,,,,,,,,,,,-63,110,1,0,0,response7disk,9,63,-16,-3,1,0,0,rectangle,-86,58,1,0,0,1,1,"[124,294,130,177,260,152,65,59,314,58,174,199,121,93,51,41,63,134,169,141]",10,5,1,0,0,0,62,62,106,1,response7disk_3,rectangle,,,,,,,,,,,,,,,,,,,,,
,,,,,,,,,,,,,,,,,,,,,,,,,,,,,,,,,,,,,,,,,,,5d891cd0a592de000185ca5b,5fe192a9eb5270c319c108e6,2020-12-22_07h31.17.015,FlowerSimilarity_Experiment,2020.1.2,Win32,60,5fe17d4a51f3a9c1a60f9869,,,,,,,,,,,,,,,,,,,2,FF,,7,1.064,,,,,,,,,,,,,,,,,,,,,,,,,,,,,,,,,,59,108,1,0,0,response1disk,6,64,13,10,1,0,0,rectangle,13,10,1,0,0,1,4,"[124,294,130,177,260,152,65,59,314,58,174,199,121,93,51,41,63,134,169,141]",13,10,1,0,0,0,63,63,40,1,,,,,,,,,,,,,,,,,,,,,,,
,,,,,,,,,,,,,,,,,,,,,,,,,,,,,,,,,,,,,,,,,,,5d891cd0a592de000185ca5b,5fe192a9eb5270c319c108e6,2020-12-22_07h31.17.015,FlowerSimilarity_Experiment,2020.1.2,Win32,60,5fe17d4a51f3a9c1a60f9869,,,,,,,,,,,,,,,,,,,4,FF,,5,1.652,,,,,,,,,,,,,,,,,,,,,,,,,,,,,,,,,,114,-39,1,0,0,response3disk,5,65,-5,3,1,0,0,rectangle,50,102,1,0,0,7,7,"[124,294,130,177,260,152,65,59,314,58,174,199,121,93,51,41,63,134,169,141]",6,-4,1,0,0,0,64,64,116,1,response1disk_3,rectangle,,,,,,,,,,,,,,,,,,,,,
,,,,,,,,,,,,,,,,,,,,,,,,,,,,,,,,,,,,,,,,,,,5d891cd0a592de000185ca5b,5fe192a9eb5270c319c108e6,2020-12-22_07h31.17.015,FlowerSimilarity_Experiment,2020.1.2,Win32,60,5fe17d4a51f3a9c1a60f9869,,,,,,,,,,,,,,,,,,,1,PF,,7,1.473,,,,,,,,,,,,,,,,,,,,,,,,,,,,,,,,,,52,116,1,0,0,response1disk,8,66,1,2,1,0,0,rectangle,1,2,1,0,0,7,0,"[124,294,130,177,260,152,65,59,314,58,174,199,121,93,51,41,63,134,169,141]",1,2,1,0,0,0,65,65,65,1,,,,,,,,,,,,,,,,,,,,,,,
,,,,,,,,,,,,,,,,,,,,,,,,,,,,,,,,,,,,,,,,,,,5d891cd0a592de000185ca5b,5fe192a9eb5270c319c108e6,2020-12-22_07h31.17.015,FlowerSimilarity_Experiment,2020.1.2,Win32,60,5fe17d4a51f3a9c1a60f9869,,,,,,,,,,,,,,,,,,,6,PF,,5,2.032,,,,,,,,,,,,,,,,,,,,,,,,,,,,,,,,,,112,-43,1,0,0,response3disk,3,67,12,10,1,0,0,rectangle,12,10,1,0,0,7,7,"[124,294,130,177,260,152,65,59,314,58,174,199,121,93,51,41,63,134,169,141]",12,10,1,0,0,0,66,66,26,1,,,,,,,,,,,,,,,,,,,,,,,
,,,,,,,,,,,,,,,,,,,,,,,,,,,,,,,,,,,,,,,,,,,5d891cd0a592de000185ca5b,5fe192a9eb5270c319c108e6,2020-12-22_07h31.17.015,FlowerSimilarity_Experiment,2020.1.2,Win32,60,5fe17d4a51f3a9c1a60f9869,,,,,,,,,,,,,,,,,,,2,FF,,7,1.752,,,,,,,,,,,,,,,,,,,,,,,,,,,,,,,,,,78,111,1,0,0,response1disk,4,68,16,7,1,0,0,rectangle,16,7,1,0,0,7,2,"[124,294,130,177,260,152,65,59,314,58,174,199,121,93,51,41,63,134,169,141]",16,7,1,0,0,0,67,67,145,1,,,,,,,,,,,,,,,,,,,,,,,
,,,,,,,,,,,,,,,,,,,,,,,,,,,,,,,,,,,,,,,,,,,5d891cd0a592de000185ca5b,5fe192a9eb5270c319c108e6,2020-12-22_07h31.17.015,FlowerSimilarity_Experiment,2020.1.2,Win32,60,5fe17d4a51f3a9c1a60f9869,,,,,,,,,,,,,,,,,,,4,FF,,5,1.526,,,,,,,,,,,,,,,,,,,,,,,,,,,,,,,,,,119,-62,1,0,0,response3disk,9,69,-11,-4,1,0,0,rectangle,-11,-4,1,0,0,7,5,"[124,294,130,177,260,152,65,59,314,58,174,199,121,93,51,41,63,134,169,141]",-11,-4,1,0,0,0,68,68,90,1,,,,,,,,,,,,,,,,,,,,,,,
,,,,,,,,,,,,,,,,,,,,,,,,,,,,,,,,,,,,,,,,,,,5d891cd0a592de000185ca5b,5fe192a9eb5270c319c108e6,2020-12-22_07h31.17.015,FlowerSimilarity_Experiment,2020.1.2,Win32,60,5fe17d4a51f3a9c1a60f9869,,,,,,,,,,,,,,,,,,,7,FF,,7,2.202,,,,,,,,,,,,,,,,,,,,,,,,,,,,,,,,,,55,128,1,0,0,response1disk,9,70,20,-10,1,0,0,rectangle,20,-10,1,0,0,7,0,"[124,294,130,177,260,152,65,59,314,58,174,199,121,93,51,41,63,134,169,141]",20,-10,1,0,0,0,69,69,155,1,,,,,,,,,,,,,,,,,,,,,,,
,,,,,,,,,,,,,,,,,,,,,,,,,,,,,,,,,,,,,,,,,,,5d891cd0a592de000185ca5b,5fe192a9eb5270c319c108e6,2020-12-22_07h31.17.015,FlowerSimilarity_Experiment,2020.1.2,Win32,60,5fe17d4a51f3a9c1a60f9869,,,,,,,,,,,,,,,,,,,6,FF,,7,1.459,,,,,,,,,,,,,,,,,,,,,,,,,,,,,,,,,,74,110,1,0,0,response1disk,5,71,23,0,1,0,0,rectangle,23,0,1,0,0,7,0,"[124,294,130,177,260,152,65,59,314,58,174,199,121,93,51,41,63,134,169,141]",23,0,1,0,0,0,70,70,126,1,,,,,,,,,,,,,,,,,,,,,,,
,,,,,,,,,,,,,,,,,,,,,,,,,,,,,,,,,,,,,,,,,,,5d891cd0a592de000185ca5b,5fe192a9eb5270c319c108e6,2020-12-22_07h31.17.015,FlowerSimilarity_Experiment,2020.1.2,Win32,60,5fe17d4a51f3a9c1a60f9869,,,,,,,,,,,,,,,,,,,3,PF,,4,3.057,,,,,,,,,,,,,,,,,,,,,,,,,,,,,,,,,,56,-91,1,0,0,response3disk,3,72,14,2,1,0,0,rectangle,14,2,1,0,0,7,2,"[124,294,130,177,260,152,65,59,314,58,174,199,121,93,51,41,63,134,169,141]",14,2,1,0,0,0,71,71,4,1,,,,,,,,,,,,,,,,,,,,,,,
,,,,,,,,,,,,,,,,,,,,,,,,,,,,,,,,,,,,,,,,,,,5d891cd0a592de000185ca5b,5fe192a9eb5270c319c108e6,2020-12-22_07h31.17.015,FlowerSimilarity_Experiment,2020.1.2,Win32,60,5fe17d4a51f3a9c1a60f9869,,,,,,,,,,,,,,,,,,,9,PF,,7,2.298,,,,,,,,,,,,,,,,,,,,,,,,,,,,,,,,,,55,105,1,0,0,response1disk,6,73,13,-3,1,0,0,rectangle,13,-3,1,0,0,7,3,"[124,294,130,177,260,152,65,59,314,58,174,199,121,93,51,41,63,134,169,141]",13,-3,1,0,0,0,72,72,148,1,,,,,,,,,,,,,,,,,,,,,,,
,,,,,,,,,,,,,,,,,,,,,,,,,,,,,,,,,,,,,,,,,,,5d891cd0a592de000185ca5b,5fe192a9eb5270c319c108e6,2020-12-22_07h31.17.015,FlowerSimilarity_Experiment,2020.1.2,Win32,60,5fe17d4a51f3a9c1a60f9869,,,,,,,,,,,,,,,,,,,2,PF,,0,0.935,,,,,,,,,,,,,,,,,,,,,,,,,,,,,,,,,,-22,111,1,0,0,response7disk,2,74,4,7,1,0,0,rectangle,4,7,1,0,0,7,3,"[124,294,130,177,260,152,65,59,314,58,174,199,121,93,51,41,63,134,169,141]",4,7,1,0,0,0,73,73,14,1,,,,,,,,,,,,,,,,,,,,,,,
,,,,,,,,,,,,,,,,,,,,,,,,,,,,,,,,,,,,,,,,,,,5d891cd0a592de000185ca5b,5fe192a9eb5270c319c108e6,2020-12-22_07h31.17.015,FlowerSimilarity_Experiment,2020.1.2,Win32,60,5fe17d4a51f3a9c1a60f9869,,,,,,,,,,,,,,,,,,,3,FF,,4,4.41,,,,,,,,,,,,,,,,,,,,,,,,,,,,,,,,,,33,-132,1,0,0,response3disk,1,75,9,6,1,0,0,rectangle,9,6,1,0,0,7,3,"[124,294,130,177,260,152,65,59,314,58,174,199,121,93,51,41,63,134,169,141]",9,6,1,0,0,0,74,74,125,1,,,,,,,,,,,,,,,,,,,,,,,
,,,,,,,,,,,,,,,,,,,,,,,,,,,,,,,,,,,,,,,,,,,5d891cd0a592de000185ca5b,5fe192a9eb5270c319c108e6,2020-12-22_07h31.17.015,FlowerSimilarity_Experiment,2020.1.2,Win32,60,5fe17d4a51f3a9c1a60f9869,,,,,,,,,,,,,,,,,,,3,FF,,6,1.565,,,,,,,,,,,,,,,,,,,,,,,,,,,,,,,,,,113,41,1,0,0,response1disk,2,76,-5,17,1,0,0,rectangle,-5,17,1,0,0,7,1,"[124,294,130,177,260,152,65,59,314,58,174,199,121,93,51,41,63,134,169,141]",-5,17,1,0,0,0,75,75,93,1,,,,,,,,,,,,,,,,,,,,,,,
,,,,,,,,,,,,,,,,,,,,,,,,,,,,,,,,,,,,,,,,,,,5d891cd0a592de000185ca5b,5fe192a9eb5270c319c108e6,2020-12-22_07h31.17.015,FlowerSimilarity_Experiment,2020.1.2,Win32,60,5fe17d4a51f3a9c1a60f9869,,,,,,,,,,,,,,,,,,,2,PF,,6,3.812,,,,,,,,,,,,,,,,,,,,,,,,,,,,,,,,,,107,62,1,0,0,response1disk,9,77,32,15,1,0,0,rectangle,32,15,1,0,0,7,6,"[124,294,130,177,260,152,65,59,314,58,174,199,121,93,51,41,63,134,169,141]",32,15,1,0,0,0,76,76,39,1,,,,,,,,,,,,,,,,,,,,,,,
,,,,,,,,,,,,,,,,,,,,,,,,,,,,,,,,,,,,,,,,,,,5d891cd0a592de000185ca5b,5fe192a9eb5270c319c108e6,2020-12-22_07h31.17.015,FlowerSimilarity_Experiment,2020.1.2,Win32,60,5fe17d4a51f3a9c1a60f9869,,,,,,,,,,,,,,,,,,,9,FF,,7,2.724,,,,,,,,,,,,,,,,,,,,,,,,,,,,,,,,,,71,107,1,0,0,response1disk,5,78,5,5,1,0,0,rectangle,5,5,1,0,0,7,6,"[124,294,130,177,260,152,65,59,314,58,174,199,121,93,51,41,63,134,169,141]",5,5,1,0,0,0,77,77,128,1,,,,,,,,,,,,,,,,,,,,,,,
,,,,,,,,,,,,,,,,,,,,,,,,,,,,,,,,,,,,,,,,,,,5d891cd0a592de000185ca5b,5fe192a9eb5270c319c108e6,2020-12-22_07h31.17.015,FlowerSimilarity_Experiment,2020.1.2,Win32,60,5fe17d4a51f3a9c1a60f9869,,,,,,,,,,,,,,,,,,,4,FF,,5,2.376,,,,,,,,,,,,,,,,,,,,,,,,,,,,,,,,,,105,-65,1,0,0,response3disk,7,79,-6,-4,1,0,0,rectangle,-6,-4,1,0,0,7,5,"[124,294,130,177,260,152,65,59,314,58,174,199,121,93,51,41,63,134,169,141]",-6,-4,1,0,0,0,78,78,87,1,,,,,,,,,,,,,,,,,,,,,,,
,,,,,,,,,,,,,,,,,,,,,,,,,,,,,,,,,,,,,,,,,,,5d891cd0a592de000185ca5b,5fe192a9eb5270c319c108e6,2020-12-22_07h31.17.015,FlowerSimilarity_Experiment,2020.1.2,Win32,60,5fe17d4a51f3a9c1a60f9869,,,,,,,,,,,,,,,,,,,4,PF,,7,1.228,,,,,,,,,,,,,,,,,,,,,,,,,,,,,,,,,,59,102,1,0,0,response1disk,8,80,16,5,1,0,0,rectangle,16,5,1,0,0,7,4,"[124,294,130,177,260,152,65,59,314,58,174,199,121,93,51,41,63,134,169,141]",16,5,1,0,0,0,79,79,124,1,,,,,,,,,,,,,,,,,,,,,,,
,,,,,,,,,,,,,,,,,,,,,,,,,,,,,,,,,,,,,,,,,,,5d891cd0a592de000185ca5b,5fe192a9eb5270c319c108e6,2020-12-22_07h31.17.015,FlowerSimilarity_Experiment,2020.1.2,Win32,60,5fe17d4a51f3a9c1a60f9869,,,,,,,,,,,,,,,,,,,8,PF,,3,2.632,,,,,,,,,,,,,,,,,,,,,,,,,,,,,,,,,,-56,-99,1,0,0,response5disk,1,81,0,-4,1,0,0,rectangle,0,-4,1,0,0,7,4,"[124,294,130,177,260,152,65,59,314,58,174,199,121,93,51,41,63,134,169,141]",0,-4,1,0,0,0,80,80,57,1,,,,,,,,,,,,,,,,,,,,,,,
,,,,,,,,,,,,,,,,,,,,,,,,,,,,,,,,,,,,,,,,,,,5d891cd0a592de000185ca5b,5fe192a9eb5270c319c108e6,2020-12-22_07h31.17.015,FlowerSimilarity_Experiment,2020.1.2,Win32,60,5fe17d4a51f3a9c1a60f9869,,,,,,,,,,,,,,,,,,,5,PF,,3,1.922,,,,,,,,,,,,,,,,,,,,,,,,,,,,,,,,,,-61,-98,1,0,0,response5disk,1,82,-26,-6,1,0,0,rectangle,-26,-6,1,0,0,7,3,"[124,294,130,177,260,152,65,59,314,58,174,199,121,93,51,41,63,134,169,141]",-26,-6,1,0,0,0,81,81,159,1,,,,,,,,,,,,,,,,,,,,,,,
,,,,,,,,,,,,,,,,,,,,,,,,,,,,,,,,,,,,,,,,,,,5d891cd0a592de000185ca5b,5fe192a9eb5270c319c108e6,2020-12-22_07h31.17.015,FlowerSimilarity_Experiment,2020.1.2,Win32,60,5fe17d4a51f3a9c1a60f9869,,,,,,,,,,,,,,,,,,,7,FF,,0,1.181,,,,,,,,,,,,,,,,,,,,,,,,,,,,,,,,,,-54,100,1,0,0,response7disk,7,83,-36,-18,1,0,0,rectangle,-36,-18,1,0,0,7,7,"[124,294,130,177,260,152,65,59,314,58,174,199,121,93,51,41,63,134,169,141]",-36,-18,1,0,0,0,82,82,34,1,,,,,,,,,,,,,,,,,,,,,,,
,,,,,,,,,,,,,,,,,,,,,,,,,,,,,,,,,,,,,,,,,,,5d891cd0a592de000185ca5b,5fe192a9eb5270c319c108e6,2020-12-22_07h31.17.015,FlowerSimilarity_Experiment,2020.1.2,Win32,60,5fe17d4a51f3a9c1a60f9869,,,,,,,,,,,,,,,,,,,4,PF,,7,1.74,,,,,,,,,,,,,,,,,,,,,,,,,,,,,,,,,,54,92,1,0,0,response1disk,6,84,25,-6,1,0,0,rectangle,25,-6,1,0,0,7,1,"[124,294,130,177,260,152,65,59,314,58,174,199,121,93,51,41,63,134,169,141]",25,-6,1,0,0,0,83,83,120,1,,,,,,,,,,,,,,,,,,,,,,,
,,,,,,,,,,,,,,,,,,,,,,,,,,,,,,,,,,,,,,,,,,,5d891cd0a592de000185ca5b,5fe192a9eb5270c319c108e6,2020-12-22_07h31.17.015,FlowerSimilarity_Experiment,2020.1.2,Win32,60,5fe17d4a51f3a9c1a60f9869,,,,,,,,,,,,,,,,,,,1,FF,,4,6.06,,,,,,,,,,,,,,,,,,,,,,,,,,,,,,,,,,70,-103,1,0,0,response3disk,5,85,12,0,1,0,0,rectangle,12,0,1,0,0,7,4,"[124,294,130,177,260,152,65,59,314,58,174,199,121,93,51,41,63,134,169,141]",12,0,1,0,0,0,84,84,82,1,,,,,,,,,,,,,,,,,,,,,,,
,,,,,,,,,,,,,,,,,,,,,,,,,,,,,,,,,,,,,,,,,,,5d891cd0a592de000185ca5b,5fe192a9eb5270c319c108e6,2020-12-22_07h31.17.015,FlowerSimilarity_Experiment,2020.1.2,Win32,60,5fe17d4a51f3a9c1a60f9869,,,,,,,,,,,,,,,,,,,1,PF,,4,1.322,,,,,,,,,,,,,,,,,,,,,,,,,,,,,,,,,,49,-116,1,0,0,response3disk,2,86,23,-10,1,0,0,rectangle,23,-10,1,0,0,7,5,"[124,294,130,177,260,152,65,59,314,58,174,199,121,93,51,41,63,134,169,141]",23,-10,1,0,0,0,85,85,24,1,,,,,,,,,,,,,,,,,,,,,,,
,,,,,,,,,,,,,,,,,,,,,,,,,,,,,,,,,,,,,,,,,,,5d891cd0a592de000185ca5b,5fe192a9eb5270c319c108e6,2020-12-22_07h31.17.015,FlowerSimilarity_Experiment,2020.1.2,Win32,60,5fe17d4a51f3a9c1a60f9869,,,,,,,,,,,,,,,,,,,3,PF,,4,0.806,,,,,,,,,,,,,,,,,,,,,,,,,,,,,,,,,,69,-88,1,0,0,response3disk,5,87,22,5,1,0,0,rectangle,22,5,1,0,0,7,3,"[124,294,130,177,260,152,65,59,314,58,174,199,121,93,51,41,63,134,169,141]",22,5,1,0,0,0,86,86,66,1,,,,,,,,,,,,,,,,,,,,,,,
,,,,,,,,,,,,,,,,,,,,,,,,,,,,,,,,,,,,,,,,,,,5d891cd0a592de000185ca5b,5fe192a9eb5270c319c108e6,2020-12-22_07h31.17.015,FlowerSimilarity_Experiment,2020.1.2,Win32,60,5fe17d4a51f3a9c1a60f9869,,,,,,,,,,,,,,,,,,,8,PF,,0,1.385,,,,,,,,,,,,,,,,,,,,,,,,,,,,,,,,,,-56,115,1,0,0,response7disk,8,88,-5,-10,1,0,0,rectangle,-5,-10,1,0,0,7,1,"[124,294,130,177,260,152,65,59,314,58,174,199,121,93,51,41,63,134,169,141]",-5,-10,1,0,0,0,87,87,153,1,,,,,,,,,,,,,,,,,,,,,,,
,,,,,,,,,,,,,,,,,,,,,,,,,,,,,,,,,,,,,,,,,,,5d891cd0a592de000185ca5b,5fe192a9eb5270c319c108e6,2020-12-22_07h31.17.015,FlowerSimilarity_Experiment,2020.1.2,Win32,60,5fe17d4a51f3a9c1a60f9869,,,,,,,,,,,,,,,,,,,7,PF,,5,2.7,,,,,,,,,,,,,,,,,,,,,,,,,,,,,,,,,,107,-50,1,0,0,response3disk,9,89,10,-8,1,0,0,rectangle,10,-8,1,0,0,7,7,"[124,294,130,177,260,152,65,59,314,58,174,199,121,93,51,41,63,134,169,141]",10,-8,1,0,0,0,88,88,10,1,,,,,,,,,,,,,,,,,,,,,,,
,,,,,,,,,,,,,,,,,,,,,,,,,,,,,,,,,,,,,,,,,,,5d891cd0a592de000185ca5b,5fe192a9eb5270c319c108e6,2020-12-22_07h31.17.015,FlowerSimilarity_Experiment,2020.1.2,Win32,60,5fe17d4a51f3a9c1a60f9869,,,,,,,,,,,,,,,,,,,1,PF,,7,1.297,,,,,,,,,,,,,,,,,,,,,,,,,,,,,,,,,,43,112,1,0,0,response1disk,6,90,8,6,1,0,0,rectangle,8,6,1,0,0,7,2,"[124,294,130,177,260,152,65,59,314,58,174,199,121,93,51,41,63,134,169,141]",8,6,1,0,0,0,89,89,144,1,,,,,,,,,,,,,,,,,,,,,,,
,,,,,,,,,,,,,,,,,,,,,,,,,,,,,,,,,,,,,,,,,,,5d891cd0a592de000185ca5b,5fe192a9eb5270c319c108e6,2020-12-22_07h31.17.015,FlowerSimilarity_Experiment,2020.1.2,Win32,60,5fe17d4a51f3a9c1a60f9869,,,,,,,,,,,,,,,,,,,6,FF,,7,1.197,,,,,,,,,,,,,,,,,,,,,,,,,,,,,,,,,,59,100,1,0,0,response1disk,4,91,11,-8,1,0,0,rectangle,11,-8,1,0,0,7,3,"[124,294,130,177,260,152,65,59,314,58,174,199,121,93,51,41,63,134,169,141]",11,-8,1,0,0,0,90,90,56,1,,,,,,,,,,,,,,,,,,,,,,,
,,,,,,,,,,,,,,,,,,,,,,,,,,,,,,,,,,,,,,,,,,,5d891cd0a592de000185ca5b,5fe192a9eb5270c319c108e6,2020-12-22_07h31.17.015,FlowerSimilarity_Experiment,2020.1.2,Win32,60,5fe17d4a51f3a9c1a60f9869,,,,,,,,,,,,,,,,,,,4,FF,,4,1.476,,,,,,,,,,,,,,,,,,,,,,,,,,,,,,,,,,55,-123,1,0,0,response3disk,2,92,29,12,1,0,0,rectangle,29,12,1,0,0,7,2,"[124,294,130,177,260,152,65,59,314,58,174,199,121,93,51,41,63,134,169,141]",29,12,1,0,0,0,91,91,13,1,,,,,,,,,,,,,,,,,,,,,,,
,,,,,,,,,,,,,,,,,,,,,,,,,,,,,,,,,,,,,,,,,,,5d891cd0a592de000185ca5b,5fe192a9eb5270c319c108e6,2020-12-22_07h31.17.015,FlowerSimilarity_Experiment,2020.1.2,Win32,60,5fe17d4a51f3a9c1a60f9869,,,,,,,,,,,,,,,,,,,2,FF,,4,1.351,,,,,,,,,,,,,,,,,,,,,,,,,,,,,,,,,,49,-104,1,0,0,response3disk,3,93,21,13,1,0,0,rectangle,132,36,1,0,0,6,6,"[124,294,130,177,260,152,65,59,314,58,174,199,121,93,51,41,63,134,169,141]",17,0,1,0,0,0,92,92,104,1,response1disk_3,rectangle,,,,,,,,,,,,,,,,,,,,,
,,,,,,,,,,,,,,,,,,,,,,,,,,,,,,,,,,,,,,,,,,,5d891cd0a592de000185ca5b,5fe192a9eb5270c319c108e6,2020-12-22_07h31.17.015,FlowerSimilarity_Experiment,2020.1.2,Win32,60,5fe17d4a51f3a9c1a60f9869,,,,,,,,,,,,,,,,,,,1,PF,,7,1.782,,,,,,,,,,,,,,,,,,,,,,,,,,,,,,,,,,73,94,1,0,0,response1disk,5,94,39,3,1,0,0,rectangle,39,3,1,0,0,6,1,"[124,294,130,177,260,152,65,59,314,58,174,199,121,93,51,41,63,134,169,141]",39,3,1,0,0,0,93,93,28,1,,,,,,,,,,,,,,,,,,,,,,,
,,,,,,,,,,,,,,,,,,,,,,,,,,,,,,,,,,,,,,,,,,,5d891cd0a592de000185ca5b,5fe192a9eb5270c319c108e6,2020-12-22_07h31.17.015,FlowerSimilarity_Experiment,2020.1.2,Win32,60,5fe17d4a51f3a9c1a60f9869,,,,,,,,,,,,,,,,,,,7,FF,,7,0.763,,,,,,,,,,,,,,,,,,,,,,,,,,,,,,,,,,60,106,1,0,0,response1disk,4,95,13,3,1,0,0,rectangle,13,3,1,0,0,6,1,"[124,294,130,177,260,152,65,59,314,58,174,199,121,93,51,41,63,134,169,141]",13,3,1,0,0,0,94,94,158,1,,,,,,,,,,,,,,,,,,,,,,,
,,,,,,,,,,,,,,,,,,,,,,,,,,,,,,,,,,,,,,,,,,,5d891cd0a592de000185ca5b,5fe192a9eb5270c319c108e6,2020-12-22_07h31.17.015,FlowerSimilarity_Experiment,2020.1.2,Win32,60,5fe17d4a51f3a9c1a60f9869,,,,,,,,,,,,,,,,,,,9,PF,,5,1.86,,,,,,,,,,,,,,,,,,,,,,,,,,,,,,,,,,112,-52,1,0,0,response3disk,5,96,2,-14,1,0,0,rectangle,2,-14,1,0,0,6,7,"[124,294,130,177,260,152,65,59,314,58,174,199,121,93,51,41,63,134,169,141]",2,-14,1,0,0,0,95,95,134,1,,,,,,,,,,,,,,,,,,,,,,,
,,,,,,,,,,,,,,,,,,,,,,,,,,,,,,,,,,,,,,,,,,,5d891cd0a592de000185ca5b,5fe192a9eb5270c319c108e6,2020-12-22_07h31.17.015,FlowerSimilarity_Experiment,2020.1.2,Win32,60,5fe17d4a51f3a9c1a60f9869,,,,,,,,,,,,,,,,,,,8,FF,,3,2.006,,,,,,,,,,,,,,,,,,,,,,,,,,,,,,,,,,-57,-102,1,0,0,response5disk,9,97,20,13,1,0,0,rectangle,20,13,1,0,0,6,3,"[124,294,130,177,260,152,65,59,314,58,174,199,121,93,51,41,63,134,169,141]",20,13,1,0,0,0,96,96,105,1,,,,,,,,,,,,,,,,,,,,,,,
,,,,,,,,,,,,,,,,,,,,,,,,,,,,,,,,,,,,,,,,,,,5d891cd0a592de000185ca5b,5fe192a9eb5270c319c108e6,2020-12-22_07h31.17.015,FlowerSimilarity_Experiment,2020.1.2,Win32,60,5fe17d4a51f3a9c1a60f9869,,,,,,,,,,,,,,,,,,,5,PF,,7,3.32,,,,,,,,,,,,,,,,,,,,,,,,,,,,,,,,,,83,111,1,0,0,response1disk,4,98,-9,-9,1,0,0,rectangle,-9,-9,1,0,0,6,7,"[124,294,130,177,260,152,65,59,314,58,174,199,121,93,51,41,63,134,169,141]",-9,-9,1,0,0,0,97,97,54,1,,,,,,,,,,,,,,,,,,,,,,,
,,,,,,,,,,,,,,,,,,,,,,,,,,,,,,,,,,,,,,,,,,,5d891cd0a592de000185ca5b,5fe192a9eb5270c319c108e6,2020-12-22_07h31.17.015,FlowerSimilarity_Experiment,2020.1.2,Win32,60,5fe17d4a51f3a9c1a60f9869,,,,,,,,,,,,,,,,,,,8,PF,,5,1.702,,,,,,,,,,,,,,,,,,,,,,,,,,,,,,,,,,137,-57,1,0,0,response3disk,9,99,20,0,1,0,0,rectangle,20,0,1,0,0,6,6,"[124,294,130,177,260,152,65,59,314,58,174,199,121,93,51,41,63,134,169,141]",20,0,1,0,0,0,98,98,42,1,,,,,,,,,,,,,,,,,,,,,,,
,,,,,,,,,,,,,,,,,,,,,,,,,,,,,,,,,,,,,,,,,,,5d891cd0a592de000185ca5b,5fe192a9eb5270c319c108e6,2020-12-22_07h31.17.015,FlowerSimilarity_Experiment,2020.1.2,Win32,60,5fe17d4a51f3a9c1a60f9869,,,,,,,,,,,,,,,,,,,3,FF,,7,1.74,,,,,,,,,,,,,,,,,,,,,,,,,,,,,,,,,,60,100,1,0,0,response1disk,6,100,17,7,1,0,0,rectangle,17,7,1,0,0,6,5,"[124,294,130,177,260,152,65,59,314,58,174,199,121,93,51,41,63,134,169,141]",17,7,1,0,0,0,99,99,95,1,,,,,,,,,,,,,,,,,,,,,,,
,,,,,,,,,,,,,,,,,,,,,,,,,,,,,,,,,,,,,,,,,,,5d891cd0a592de000185ca5b,5fe192a9eb5270c319c108e6,2020-12-22_07h31.17.015,FlowerSimilarity_Experiment,2020.1.2,Win32,60,5fe17d4a51f3a9c1a60f9869,,,,,,,,,,,,,,,,,,,3,FF,,5,2.407,,,,,,,,,,,,,,,,,,,,,,,,,,,,,,,,,,91,-63,1,0,0,response3disk,9,101,25,-1,1,0,0,rectangle,25,-1,1,0,0,6,1,"[124,294,130,177,260,152,65,59,314,58,174,199,121,93,51,41,63,134,169,141]",25,-1,1,0,0,0,100,100,143,1,,,,,,,,,,,,,,,,,,,,,,,
,,,,,,,,,,,,,,,,,,,,,,,,,,,,,,,,,,,,,,,,,,,5d891cd0a592de000185ca5b,5fe192a9eb5270c319c108e6,2020-12-22_07h31.17.015,FlowerSimilarity_Experiment,2020.1.2,Win32,60,5fe17d4a51f3a9c1a60f9869,,,,,,,,,,,,,,,,,,,7,PF,,5,1.426,,,,,,,,,,,,,,,,,,,,,,,,,,,,,,,,,,134,-29,1,0,0,response3disk,1,102,23,14,1,0,0,rectangle,23,14,1,0,0,6,5,"[124,294,130,177,260,152,65,59,314,58,174,199,121,93,51,41,63,134,169,141]",23,14,1,0,0,0,101,101,53,1,,,,,,,,,,,,,,,,,,,,,,,
,,,,,,,,,,,,,,,,,,,,,,,,,,,,,,,,,,,,,,,,,,,5d891cd0a592de000185ca5b,5fe192a9eb5270c319c108e6,2020-12-22_07h31.17.015,FlowerSimilarity_Experiment,2020.1.2,Win32,60,5fe17d4a51f3a9c1a60f9869,,,,,,,,,,,,,,,,,,,6,FF,,0,1.326,,,,,,,,,,,,,,,,,,,,,,,,,,,,,,,,,,-69,111,1,0,0,response7disk,6,103,-3,-2,1,0,0,rectangle,-3,-2,1,0,0,6,6,"[124,294,130,177,260,152,65,59,314,58,174,199,121,93,51,41,63,134,169,141]",-3,-2,1,0,0,0,102,102,91,1,,,,,,,,,,,,,,,,,,,,,,,
,,,,,,,,,,,,,,,,,,,,,,,,,,,,,,,,,,,,,,,,,,,5d891cd0a592de000185ca5b,5fe192a9eb5270c319c108e6,2020-12-22_07h31.17.015,FlowerSimilarity_Experiment,2020.1.2,Win32,60,5fe17d4a51f3a9c1a60f9869,,,,,,,,,,,,,,,,,,,8,PF,,4,1.728,,,,,,,,,,,,,,,,,,,,,,,,,,,,,,,,,,63,-116,1,0,0,response3disk,2,104,6,-11,1,0,0,rectangle,6,-11,1,0,0,6,4,"[124,294,130,177,260,152,65,59,314,58,174,199,121,93,51,41,63,134,169,141]",6,-11,1,0,0,0,103,103,83,1,,,,,,,,,,,,,,,,,,,,,,,
,,,,,,,,,,,,,,,,,,,,,,,,,,,,,,,,,,,,,,,,,,,5d891cd0a592de000185ca5b,5fe192a9eb5270c319c108e6,2020-12-22_07h31.17.015,FlowerSimilarity_Experiment,2020.1.2,Win32,60,5fe17d4a51f3a9c1a60f9869,,,,,,,,,,,,,,,,,,,8,FF,,7,1.974,,,,,,,,,,,,,,,,,,,,,,,,,,,,,,,,,,35,101,1,0,0,response1disk,5,105,11,-9,1,0,0,rectangle,11,-9,1,0,0,6,6,"[124,294,130,177,260,152,65,59,314,58,174,199,121,93,51,41,63,134,169,141]",11,-9,1,0,0,0,104,104,152,1,,,,,,,,,,,,,,,,,,,,,,,
,,,,,,,,,,,,,,,,,,,,,,,,,,,,,,,,,,,,,,,,,,,5d891cd0a592de000185ca5b,5fe192a9eb5270c319c108e6,2020-12-22_07h31.17.015,FlowerSimilarity_Experiment,2020.1.2,Win32,60,5fe17d4a51f3a9c1a60f9869,,,,,,,,,,,,,,,,,,,3,PF,,6,1.957,,,,,,,,,,,,,,,,,,,,,,,,,,,,,,,,,,116,52,1,0,0,response1disk,2,106,13,11,1,0,0,rectangle,13,11,1,0,0,6,7,"[124,294,130,177,260,152,65,59,314,58,174,199,121,93,51,41,63,134,169,141]",13,11,1,0,0,0,105,105,36,1,,,,,,,,,,,,,,,,,,,,,,,
,,,,,,,,,,,,,,,,,,,,,,,,,,,,,,,,,,,,,,,,,,,5d891cd0a592de000185ca5b,5fe192a9eb5270c319c108e6,2020-12-22_07h31.17.015,FlowerSimilarity_Experiment,2020.1.2,Win32,60,5fe17d4a51f3a9c1a60f9869,,,,,,,,,,,,,,,,,,,4,PF,,5,1.789,,,,,,,,,,,,,,,,,,,,,,,,,,,,,,,,,,164,-57,1,0,0,response3disk,1,107,29,-10,1,0,0,rectangle,29,-10,1,0,0,6,0,"[124,294,130,177,260,152,65,59,314,58,174,199,121,93,51,41,63,134,169,141]",29,-10,1,0,0,0,106,106,115,1,,,,,,,,,,,,,,,,,,,,,,,
,,,,,,,,,,,,,,,,,,,,,,,,,,,,,,,,,,,,,,,,,,,5d891cd0a592de000185ca5b,5fe192a9eb5270c319c108e6,2020-12-22_07h31.17.015,FlowerSimilarity_Experiment,2020.1.2,Win32,60,5fe17d4a51f3a9c1a60f9869,,,,,,,,,,,,,,,,,,,5,FF,,5,0.93,,,,,,,,,,,,,,,,,,,,,,,,,,,,,,,,,,126,-42,1,0,0,response3disk,9,108,-13,-15,1,0,0,rectangle,-13,-15,1,0,0,6,2,"[124,294,130,177,260,152,65,59,314,58,174,199,121,93,51,41,63,134,169,141]",-13,-15,1,0,0,0,107,107,61,1,,,,,,,,,,,,,,,,,,,,,,,
,,,,,,,,,,,,,,,,,,,,,,,,,,,,,,,,,,,,,,,,,,,5d891cd0a592de000185ca5b,5fe192a9eb5270c319c108e6,2020-12-22_07h31.17.015,FlowerSimilarity_Experiment,2020.1.2,Win32,60,5fe17d4a51f3a9c1a60f9869,,,,,,,,,,,,,,,,,,,1,FF,,0,1.31,,,,,,,,,,,,,,,,,,,,,,,,,,,,,,,,,,-73,106,1,0,0,response7disk,1,109,32,-7,1,0,0,rectangle,32,-7,1,0,0,6,7,"[124,294,130,177,260,152,65,59,314,58,174,199,121,93,51,41,63,134,169,141]",32,-7,1,0,0,0,108,108,151,1,,,,,,,,,,,,,,,,,,,,,,,
,,,,,,,,,,,,,,,,,,,,,,,,,,,,,,,,,,,,,,,,,,,5d891cd0a592de000185ca5b,5fe192a9eb5270c319c108e6,2020-12-22_07h31.17.015,FlowerSimilarity_Experiment,2020.1.2,Win32,60,5fe17d4a51f3a9c1a60f9869,,,,,,,,,,,,,,,,,,,6,PF,,0,0.88,,,,,,,,,,,,,,,,,,,,,,,,,,,,,,,,,,-44,102,1,0,0,response7disk,9,110,-9,5,1,0,0,rectangle,-9,5,1,0,0,6,3,"[124,294,130,177,260,152,65,59,314,58,174,199,121,93,51,41,63,134,169,141]",-9,5,1,0,0,0,109,109,45,1,,,,,,,,,,,,,,,,,,,,,,,
,,,,,,,,,,,,,,,,,,,,,,,,,,,,,,,,,,,,,,,,,,,5d891cd0a592de000185ca5b,5fe192a9eb5270c319c108e6,2020-12-22_07h31.17.015,FlowerSimilarity_Experiment,2020.1.2,Win32,60,5fe17d4a51f3a9c1a60f9869,,,,,,,,,,,,,,,,,,,4,FF,,7,1.006,,,,,,,,,,,,,,,,,,,,,,,,,,,,,,,,,,63,114,1,0,0,response1disk,6,111,33,3,1,0,0,rectangle,33,3,1,0,0,6,6,"[124,294,130,177,260,152,65,59,314,58,174,199,121,93,51,41,63,134,169,141]",33,3,1,0,0,0,110,110,122,1,,,,,,,,,,,,,,,,,,,,,,,
,,,,,,,,,,,,,,,,,,,,,,,,,,,,,,,,,,,,,,,,,,,5d891cd0a592de000185ca5b,5fe192a9eb5270c319c108e6,2020-12-22_07h31.17.015,FlowerSimilarity_Experiment,2020.1.2,Win32,60,5fe17d4a51f3a9c1a60f9869,,,,,,,,,,,,,,,,,,,2,PF,,5,1.881,,,,,,,,,,,,,,,,,,,,,,,,,,,,,,,,,,123,-48,1,0,0,response3disk,8,112,26,21,1,0,0,rectangle,26,21,1,0,0,6,5,"[124,294,130,177,260,152,65,59,314,58,174,199,121,93,51,41,63,134,169,141]",26,21,1,0,0,0,111,111,52,1,,,,,,,,,,,,,,,,,,,,,,,
,,,,,,,,,,,,,,,,,,,,,,,,,,,,,,,,,,,,,,,,,,,5d891cd0a592de000185ca5b,5fe192a9eb5270c319c108e6,2020-12-22_07h31.17.015,FlowerSimilarity_Experiment,2020.1.2,Win32,60,5fe17d4a51f3a9c1a60f9869,,,,,,,,,,,,,,,,,,,5,FF,,5,1.147,,,,,,,,,,,,,,,,,,,,,,,,,,,,,,,,,,145,-61,1,0,0,response3disk,1,113,2,7,1,0,0,rectangle,2,7,1,0,0,6,0,"[124,294,130,177,260,152,65,59,314,58,174,199,121,93,51,41,63,134,169,141]",2,7,1,0,0,0,112,112,131,1,,,,,,,,,,,,,,,,,,,,,,,
,,,,,,,,,,,,,,,,,,,,,,,,,,,,,,,,,,,,,,,,,,,5d891cd0a592de000185ca5b,5fe192a9eb5270c319c108e6,2020-12-22_07h31.17.015,FlowerSimilarity_Experiment,2020.1.2,Win32,60,5fe17d4a51f3a9c1a60f9869,,,,,,,,,,,,,,,,,,,2,PF,,4,1.177,,,,,,,,,,,,,,,,,,,,,,,,,,,,,,,,,,67,-107,1,0,0,response3disk,3,114,-15,-4,1,0,0,rectangle,-15,-4,1,0,0,6,2,"[124,294,130,177,260,152,65,59,314,58,174,199,121,93,51,41,63,134,169,141]",-15,-4,1,0,0,0,113,113,69,1,,,,,,,,,,,,,,,,,,,,,,,
,,,,,,,,,,,,,,,,,,,,,,,,,,,,,,,,,,,,,,,,,,,5d891cd0a592de000185ca5b,5fe192a9eb5270c319c108e6,2020-12-22_07h31.17.015,FlowerSimilarity_Experiment,2020.1.2,Win32,60,5fe17d4a51f3a9c1a60f9869,,,,,,,,,,,,,,,,,,,2,FF,,5,1.255,,,,,,,,,,,,,,,,,,,,,,,,,,,,,,,,,,106,-61,1,0,0,response3disk,8,115,-13,-10,1,0,0,rectangle,-13,-10,1,0,0,6,3,"[124,294,130,177,260,152,65,59,314,58,174,199,121,93,51,41,63,134,169,141]",-13,-10,1,0,0,0,114,114,62,1,,,,,,,,,,,,,,,,,,,,,,,
,,,,,,,,,,,,,,,,,,,,,,,,,,,,,,,,,,,,,,,,,,,5d891cd0a592de000185ca5b,5fe192a9eb5270c319c108e6,2020-12-22_07h31.17.015,FlowerSimilarity_Experiment,2020.1.2,Win32,60,5fe17d4a51f3a9c1a60f9869,,,,,,,,,,,,,,,,,,,7,FF,,5,1.094,,,,,,,,,,,,,,,,,,,,,,,,,,,,,,,,,,109,-51,1,0,0,response3disk,8,116,-8,13,1,0,0,rectangle,-8,13,1,0,0,6,0,"[124,294,130,177,260,152,65,59,314,58,174,199,121,93,51,41,63,134,169,141]",-8,13,1,0,0,0,115,115,97,1,,,,,,,,,,,,,,,,,,,,,,,
,,,,,,,,,,,,,,,,,,,,,,,,,,,,,,,,,,,,,,,,,,,5d891cd0a592de000185ca5b,5fe192a9eb5270c319c108e6,2020-12-22_07h31.17.015,FlowerSimilarity_Experiment,2020.1.2,Win32,60,5fe17d4a51f3a9c1a60f9869,,,,,,,,,,,,,,,,,,,6,FF,,3,2.085,,,,,,,,,,,,,,,,,,,,,,,,,,,,,,,,,,-44,-130,1,0,0,response5disk,9,117,13,-4,1,0,0,rectangle,13,-4,1,0,0,6,1,"[124,294,130,177,260,152,65,59,314,58,174,199,121,93,51,41,63,134,169,141]",13,-4,1,0,0,0,116,116,160,1,,,,,,,,,,,,,,,,,,,,,,,
,,,,,,,,,,,,,,,,,,,,,,,,,,,,,,,,,,,,,,,,,,,5d891cd0a592de000185ca5b,5fe192a9eb5270c319c108e6,2020-12-22_07h31.17.015,FlowerSimilarity_Experiment,2020.1.2,Win32,60,5fe17d4a51f3a9c1a60f9869,,,,,,,,,,,,,,,,,,,8,FF,,5,0.981,,,,,,,,,,,,,,,,,,,,,,,,,,,,,,,,,,96,-56,1,0,0,response3disk,1,118,24,4,1,0,0,rectangle,24,4,1,0,0,6,2,"[124,294,130,177,260,152,65,59,314,58,174,199,121,93,51,41,63,134,169,141]",24,4,1,0,0,0,117,117,20,1,,,,,,,,,,,,,,,,,,,,,,,
,,,,,,,,,,,,,,,,,,,,,,,,,,,,,,,,,,,,,,,,,,,5d891cd0a592de000185ca5b,5fe192a9eb5270c319c108e6,2020-12-22_07h31.17.015,FlowerSimilarity_Experiment,2020.1.2,Win32,60,5fe17d4a51f3a9c1a60f9869,,,,,,,,,,,,,,,,,,,3,FF,,7,1.193,,,,,,,,,,,,,,,,,,,,,,,,,,,,,,,,,,56,131,1,0,0,response1disk,4,119,1,-10,1,0,0,rectangle,1,-10,1,0,0,6,7,"[124,294,130,177,260,152,65,59,314,58,174,199,121,93,51,41,63,134,169,141]",1,-10,1,0,0,0,118,118,110,1,,,,,,,,,,,,,,,,,,,,,,,
,,,,,,,,,,,,,,,,,,,,,,,,,,,,,,,,,,,,,,,,,,,5d891cd0a592de000185ca5b,5fe192a9eb5270c319c108e6,2020-12-22_07h31.17.015,FlowerSimilarity_Experiment,2020.1.2,Win32,60,5fe17d4a51f3a9c1a60f9869,,,,,,,,,,,,,,,,,,,8,PF,,6,1.28,,,,,,,,,,,,,,,,,,,,,,,,,,,,,,,,,,124,39,1,0,0,response1disk,5,120,22,-8,1,0,0,rectangle,22,-8,1,0,0,6,0,"[124,294,130,177,260,152,65,59,314,58,174,199,121,93,51,41,63,134,169,141]",22,-8,1,0,0,0,119,119,98,1,,,,,,,,,,,,,,,,,,,,,,,
,,,,,,,,,,,,,,,,,,,,,,,,,,,,,,,,,,,,,,,,,,,5d891cd0a592de000185ca5b,5fe192a9eb5270c319c108e6,2020-12-22_07h31.17.015,FlowerSimilarity_Experiment,2020.1.2,Win32,60,5fe17d4a51f3a9c1a60f9869,,,,,,,,,,,,,,,,,,,6,PF,,0,1.347,,,,,,,,,,,,,,,,,,,,,,,,,,,,,,,,,,-38,122,1,0,0,response7disk,6,121,30,-3,1,0,0,rectangle,-99,48,1,0,0,1,1,"[124,294,130,177,260,152,65,59,314,58,174,199,121,93,51,41,63,134,169,141]",16,5,1,0,0,0,120,120,0,1,response7disk_3,rectangle,,,,,,,,,,,,,,,,,,,,,
,,,,,,,,,,,,,,,,,,,,,,,,,,,,,,,,,,,,,,,,,,,5d891cd0a592de000185ca5b,5fe192a9eb5270c319c108e6,2020-12-22_07h31.17.015,FlowerSimilarity_Experiment,2020.1.2,Win32,60,5fe17d4a51f3a9c1a60f9869,,,,,,,,,,,,,,,,,,,3,PF,,6,1.592,,,,,,,,,,,,,,,,,,,,,,,,,,,,,,,,,,100,59,1,0,0,response1disk,1,122,20,10,1,0,0,rectangle,20,10,1,0,0,1,6,"[124,294,130,177,260,152,65,59,314,58,174,199,121,93,51,41,63,134,169,141]",20,10,1,0,0,0,121,121,96,1,,,,,,,,,,,,,,,,,,,,,,,
,,,,,,,,,,,,,,,,,,,,,,,,,,,,,,,,,,,,,,,,,,,5d891cd0a592de000185ca5b,5fe192a9eb5270c319c108e6,2020-12-22_07h31.17.015,FlowerSimilarity_Experiment,2020.1.2,Win32,60,5fe17d4a51f3a9c1a60f9869,,,,,,,,,,,,,,,,,,,4,PF,,6,0.93,,,,,,,,,,,,,,,,,,,,,,,,,,,,,,,,,,116,59,1,0,0,response1disk,4,123,-15,14,1,0,0,rectangle,-15,14,1,0,0,1,5,"[124,294,130,177,260,152,65,59,314,58,174,199,121,93,51,41,63,134,169,141]",-15,14,1,0,0,0,122,122,70,1,,,,,,,,,,,,,,,,,,,,,,,
,,,,,,,,,,,,,,,,,,,,,,,,,,,,,,,,,,,,,,,,,,,5d891cd0a592de000185ca5b,5fe192a9eb5270c319c108e6,2020-12-22_07h31.17.015,FlowerSimilarity_Experiment,2020.1.2,Win32,60,5fe17d4a51f3a9c1a60f9869,,,,,,,,,,,,,,,,,,,4,PF,,4,2.733,,,,,,,,,,,,,,,,,,,,,,,,,,,,,,,,,,62,-123,1,0,0,response3disk,9,124,4,-3,1,0,0,rectangle,126,-78,1,0,0,5,5,"[124,294,130,177,260,152,65,59,314,58,174,199,121,93,51,41,63,134,169,141]",10,-4,1,0,0,0,123,123,75,1,response3disk_3,rectangle,,,,,,,,,,,,,,,,,,,,,
,,,,,,,,,,,,,,,,,,,,,,,,,,,,,,,,,,,,,,,,,,,5d891cd0a592de000185ca5b,5fe192a9eb5270c319c108e6,2020-12-22_07h31.17.015,FlowerSimilarity_Experiment,2020.1.2,Win32,60,5fe17d4a51f3a9c1a60f9869,,,,,,,,,,,,,,,,,,,4,FF,,3,2.302,,,,,,,,,,,,,,,,,,,,,,,,,,,,,,,,,,-50,-127,1,0,0,response5disk,4,125,27,-9,1,0,0,rectangle,27,-9,1,0,0,5,7,"[124,294,130,177,260,152,65,59,314,58,174,199,121,93,51,41,63,134,169,141]",27,-9,1,0,0,0,124,124,84,1,,,,,,,,,,,,,,,,,,,,,,,
,,,,,,,,,,,,,,,,,,,,,,,,,,,,,,,,,,,,,,,,,,,5d891cd0a592de000185ca5b,5fe192a9eb5270c319c108e6,2020-12-22_07h31.17.015,FlowerSimilarity_Experiment,2020.1.2,Win32,60,5fe17d4a51f3a9c1a60f9869,,,,,,,,,,,,,,,,,,,5,FF,,4,2.998,,,,,,,,,,,,,,,,,,,,,,,,,,,,,,,,,,57,-103,1,0,0,response3disk,5,126,12,-8,1,0,0,rectangle,12,-8,1,0,0,5,2,"[124,294,130,177,260,152,65,59,314,58,174,199,121,93,51,41,63,134,169,141]",12,-8,1,0,0,0,125,125,19,1,,,,,,,,,,,,,,,,,,,,,,,
,,,,,,,,,,,,,,,,,,,,,,,,,,,,,,,,,,,,,,,,,,,5d891cd0a592de000185ca5b,5fe192a9eb5270c319c108e6,2020-12-22_07h31.17.015,FlowerSimilarity_Experiment,2020.1.2,Win32,60,5fe17d4a51f3a9c1a60f9869,,,,,,,,,,,,,,,,,,,7,FF,,4,1.131,,,,,,,,,,,,,,,,,,,,,,,,,,,,,,,,,,52,-126,1,0,0,response3disk,1,127,7,-7,1,0,0,rectangle,7,-7,1,0,0,5,1,"[124,294,130,177,260,152,65,59,314,58,174,199,121,93,51,41,63,134,169,141]",7,-7,1,0,0,0,126,126,132,1,,,,,,,,,,,,,,,,,,,,,,,
,,,,,,,,,,,,,,,,,,,,,,,,,,,,,,,,,,,,,,,,,,,5d891cd0a592de000185ca5b,5fe192a9eb5270c319c108e6,2020-12-22_07h31.17.015,FlowerSimilarity_Experiment,2020.1.2,Win32,60,5fe17d4a51f3a9c1a60f9869,,,,,,,,,,,,,,,,,,,5,PF,,7,1.127,,,,,,,,,,,,,,,,,,,,,,,,,,,,,,,,,,53,108,1,0,0,response1disk,6,128,37,-1,1,0,0,rectangle,37,-1,1,0,0,5,2,"[124,294,130,177,260,152,65,59,314,58,174,199,121,93,51,41,63,134,169,141]",37,-1,1,0,0,0,127,127,103,1,,,,,,,,,,,,,,,,,,,,,,,
,,,,,,,,,,,,,,,,,,,,,,,,,,,,,,,,,,,,,,,,,,,5d891cd0a592de000185ca5b,5fe192a9eb5270c319c108e6,2020-12-22_07h31.17.015,FlowerSimilarity_Experiment,2020.1.2,Win32,60,5fe17d4a51f3a9c1a60f9869,,,,,,,,,,,,,,,,,,,7,PF,,7,1.105,,,,,,,,,,,,,,,,,,,,,,,,,,,,,,,,,,72,98,1,0,0,response1disk,5,129,8,-3,1,0,0,rectangle,8,-3,1,0,0,5,0,"[124,294,130,177,260,152,65,59,314,58,174,199,121,93,51,41,63,134,169,141]",8,-3,1,0,0,0,128,128,92,1,,,,,,,,,,,,,,,,,,,,,,,
,,,,,,,,,,,,,,,,,,,,,,,,,,,,,,,,,,,,,,,,,,,5d891cd0a592de000185ca5b,5fe192a9eb5270c319c108e6,2020-12-22_07h31.17.015,FlowerSimilarity_Experiment,2020.1.2,Win32,60,5fe17d4a51f3a9c1a60f9869,,,,,,,,,,,,,,,,,,,3,PF,,7,1.034,,,,,,,,,,,,,,,,,,,,,,,,,,,,,,,,,,57,101,1,0,0,response1disk,7,130,33,16,1,0,0,rectangle,145,-73,1,0,0,5,5,"[124,294,130,177,260,152,65,59,314,58,174,199,121,93,51,41,63,134,169,141]",-5,-11,1,0,0,0,129,129,41,1,response3disk_3,rectangle,,,,,,,,,,,,,,,,,,,,,
,,,,,,,,,,,,,,,,,,,,,,,,,,,,,,,,,,,,,,,,,,,5d891cd0a592de000185ca5b,5fe192a9eb5270c319c108e6,2020-12-22_07h31.17.015,FlowerSimilarity_Experiment,2020.1.2,Win32,60,5fe17d4a51f3a9c1a60f9869,,,,,,,,,,,,,,,,,,,5,PF,,5,1.134,,,,,,,,,,,,,,,,,,,,,,,,,,,,,,,,,,112,-90,1,0,0,response3disk,7,131,-20,-17,1,0,0,rectangle,-20,-17,1,0,0,5,7,"[124,294,130,177,260,152,65,59,314,58,174,199,121,93,51,41,63,134,169,141]",-20,-17,1,0,0,0,130,130,146,1,,,,,,,,,,,,,,,,,,,,,,,
,,,,,,,,,,,,,,,,,,,,,,,,,,,,,,,,,,,,,,,,,,,5d891cd0a592de000185ca5b,5fe192a9eb5270c319c108e6,2020-12-22_07h31.17.015,FlowerSimilarity_Experiment,2020.1.2,Win32,60,5fe17d4a51f3a9c1a60f9869,,,,,,,,,,,,,,,,,,,5,FF,,5,0.892,,,,,,,,,,,,,,,,,,,,,,,,,,,,,,,,,,104,-69,1,0,0,response3disk,7,132,13,-12,1,0,0,rectangle,13,-12,1,0,0,5,1,"[124,294,130,177,260,152,65,59,314,58,174,199,121,93,51,41,63,134,169,141]",13,-12,1,0,0,0,131,131,7,1,,,,,,,,,,,,,,,,,,,,,,,
,,,,,,,,,,,,,,,,,,,,,,,,,,,,,,,,,,,,,,,,,,,5d891cd0a592de000185ca5b,5fe192a9eb5270c319c108e6,2020-12-22_07h31.17.015,FlowerSimilarity_Experiment,2020.1.2,Win32,60,5fe17d4a51f3a9c1a60f9869,,,,,,,,,,,,,,,,,,,4,FF,,3,1.523,,,,,,,,,,,,,,,,,,,,,,,,,,,,,,,,,,-45,-130,1,0,0,response5disk,1,133,-3,-8,1,0,0,rectangle,-3,-8,1,0,0,5,7,"[124,294,130,177,260,152,65,59,314,58,174,199,121,93,51,41,63,134,169,141]",-3,-8,1,0,0,0,132,132,102,1,,,,,,,,,,,,,,,,,,,,,,,
,,,,,,,,,,,,,,,,,,,,,,,,,,,,,,,,,,,,,,,,,,,5d891cd0a592de000185ca5b,5fe192a9eb5270c319c108e6,2020-12-22_07h31.17.015,FlowerSimilarity_Experiment,2020.1.2,Win32,60,5fe17d4a51f3a9c1a60f9869,,,,,,,,,,,,,,,,,,,6,PF,,3,1.785,,,,,,,,,,,,,,,,,,,,,,,,,,,,,,,,,,-35,-103,1,0,0,response5disk,2,134,35,11,1,0,0,rectangle,-35,113,1,0,0,0,0,"[124,294,130,177,260,152,65,59,314,58,174,199,121,93,51,41,63,134,169,141]",5,-9,1,0,0,0,133,133,130,1,response7disk_3,rectangle,,,,,,,,,,,,,,,,,,,,,
,,,,,,,,,,,,,,,,,,,,,,,,,,,,,,,,,,,,,,,,,,,5d891cd0a592de000185ca5b,5fe192a9eb5270c319c108e6,2020-12-22_07h31.17.015,FlowerSimilarity_Experiment,2020.1.2,Win32,60,5fe17d4a51f3a9c1a60f9869,,,,,,,,,,,,,,,,,,,4,FF,,5,3.466,,,,,,,,,,,,,,,,,,,,,,,,,,,,,,,,,,114,-46,1,0,0,response3disk,8,135,34,-9,1,0,0,rectangle,34,-9,1,0,0,0,2,"[124,294,130,177,260,152,65,59,314,58,174,199,121,93,51,41,63,134,169,141]",34,-9,1,0,0,0,134,134,35,1,,,,,,,,,,,,,,,,,,,,,,,
,,,,,,,,,,,,,,,,,,,,,,,,,,,,,,,,,,,,,,,,,,,5d891cd0a592de000185ca5b,5fe192a9eb5270c319c108e6,2020-12-22_07h31.17.015,FlowerSimilarity_Experiment,2020.1.2,Win32,60,5fe17d4a51f3a9c1a60f9869,,,,,,,,,,,,,,,,,,,2,PF,,5,1.61,,,,,,,,,,,,,,,,,,,,,,,,,,,,,,,,,,101,-46,1,0,0,response3disk,1,136,-15,7,1,0,0,rectangle,-15,7,1,0,0,0,1,"[124,294,130,177,260,152,65,59,314,58,174,199,121,93,51,41,63,134,169,141]",-15,7,1,0,0,0,135,135,9,1,,,,,,,,,,,,,,,,,,,,,,,
,,,,,,,,,,,,,,,,,,,,,,,,,,,,,,,,,,,,,,,,,,,5d891cd0a592de000185ca5b,5fe192a9eb5270c319c108e6,2020-12-22_07h31.17.015,FlowerSimilarity_Experiment,2020.1.2,Win32,60,5fe17d4a51f3a9c1a60f9869,,,,,,,,,,,,,,,,,,,9,PF,,7,0.809,,,,,,,,,,,,,,,,,,,,,,,,,,,,,,,,,,58,123,1,0,0,response1disk,7,137,10,-6,1,0,0,rectangle,10,-6,1,0,0,0,1,"[124,294,130,177,260,152,65,59,314,58,174,199,121,93,51,41,63,134,169,141]",10,-6,1,0,0,0,136,136,121,1,,,,,,,,,,,,,,,,,,,,,,,
,,,,,,,,,,,,,,,,,,,,,,,,,,,,,,,,,,,,,,,,,,,5d891cd0a592de000185ca5b,5fe192a9eb5270c319c108e6,2020-12-22_07h31.17.015,FlowerSimilarity_Experiment,2020.1.2,Win32,60,5fe17d4a51f3a9c1a60f9869,,,,,,,,,,,,,,,,,,,8,FF,,7,0.906,,,,,,,,,,,,,,,,,,,,,,,,,,,,,,,,,,49,113,1,0,0,response1disk,6,138,29,-9,1,0,0,rectangle,29,-9,1,0,0,0,4,"[124,294,130,177,260,152,65,59,314,58,174,199,121,93,51,41,63,134,169,141]",29,-9,1,0,0,0,137,137,37,1,,,,,,,,,,,,,,,,,,,,,,,
,,,,,,,,,,,,,,,,,,,,,,,,,,,,,,,,,,,,,,,,,,,5d891cd0a592de000185ca5b,5fe192a9eb5270c319c108e6,2020-12-22_07h31.17.015,FlowerSimilarity_Experiment,2020.1.2,Win32,60,5fe17d4a51f3a9c1a60f9869,,,,,,,,,,,,,,,,,,,5,PF,,7,1.876,,,,,,,,,,,,,,,,,,,,,,,,,,,,,,,,,,49,101,1,0,0,response1disk,3,139,11,4,1,0,0,rectangle,11,4,1,0,0,0,6,"[124,294,130,177,260,152,65,59,314,58,174,199,121,93,51,41,63,134,169,141]",11,4,1,0,0,0,138,138,109,1,,,,,,,,,,,,,,,,,,,,,,,
,,,,,,,,,,,,,,,,,,,,,,,,,,,,,,,,,,,,,,,,,,,5d891cd0a592de000185ca5b,5fe192a9eb5270c319c108e6,2020-12-22_07h31.17.015,FlowerSimilarity_Experiment,2020.1.2,Win32,60,5fe17d4a51f3a9c1a60f9869,,,,,,,,,,,,,,,,,,,2,PF,,7,0.743,,,,,,,,,,,,,,,,,,,,,,,,,,,,,,,,,,60,118,1,0,0,response1disk,4,140,23,8,1,0,0,rectangle,23,8,1,0,0,0,6,"[124,294,130,177,260,152,65,59,314,58,174,199,121,93,51,41,63,134,169,141]",23,8,1,0,0,0,139,139,127,1,,,,,,,,,,,,,,,,,,,,,,,
,,,,,,,,,,,,,,,,,,,,,,,,,,,,,,,,,,,,,,,,,,,5d891cd0a592de000185ca5b,5fe192a9eb5270c319c108e6,2020-12-22_07h31.17.015,FlowerSimilarity_Experiment,2020.1.2,Win32,60,5fe17d4a51f3a9c1a60f9869,,,,,,,,,,,,,,,,,,,9,PF,,6,1.71,,,,,,,,,,,,,,,,,,,,,,,,,,,,,,,,,,109,72,1,0,0,response1disk,2,141,19,-5,1,0,0,rectangle,-45,-119,1,0,0,3,3,"[124,294,130,177,260,152,65,59,314,58,174,199,121,93,51,41,63,134,169,141]",-2,3,1,0,0,0,140,140,157,1,response5disk_3,rectangle,,,,,,,,,,,,,,,,,,,,,
,,,,,,,,,,,,,,,,,,,,,,,,,,,,,,,,,,,,,,,,,,,5d891cd0a592de000185ca5b,5fe192a9eb5270c319c108e6,2020-12-22_07h31.17.015,FlowerSimilarity_Experiment,2020.1.2,Win32,60,5fe17d4a51f3a9c1a60f9869,,,,,,,,,,,,,,,,,,,9,FF,,7,1.568,,,,,,,,,,,,,,,,,,,,,,,,,,,,,,,,,,55,109,1,0,0,response1disk,3,142,21,6,1,0,0,rectangle,21,6,1,0,0,3,1,"[124,294,130,177,260,152,65,59,314,58,174,199,121,93,51,41,63,134,169,141]",21,6,1,0,0,0,141,141,141,1,,,,,,,,,,,,,,,,,,,,,,,
,,,,,,,,,,,,,,,,,,,,,,,,,,,,,,,,,,,,,,,,,,,5d891cd0a592de000185ca5b,5fe192a9eb5270c319c108e6,2020-12-22_07h31.17.015,FlowerSimilarity_Experiment,2020.1.2,Win32,60,5fe17d4a51f3a9c1a60f9869,,,,,,,,,,,,,,,,,,,7,PF,,7,0.729,,,,,,,,,,,,,,,,,,,,,,,,,,,,,,,,,,63,97,1,0,0,response1disk,2,143,21,-2,1,0,0,rectangle,21,-2,1,0,0,3,5,"[124,294,130,177,260,152,65,59,314,58,174,199,121,93,51,41,63,134,169,141]",21,-2,1,0,0,0,142,142,32,1,,,,,,,,,,,,,,,,,,,,,,,
,,,,,,,,,,,,,,,,,,,,,,,,,,,,,,,,,,,,,,,,,,,5d891cd0a592de000185ca5b,5fe192a9eb5270c319c108e6,2020-12-22_07h31.17.015,FlowerSimilarity_Experiment,2020.1.2,Win32,60,5fe17d4a51f3a9c1a60f9869,,,,,,,,,,,,,,,,,,,4,PF,,6,0.868,,,,,,,,,,,,,,,,,,,,,,,,,,,,,,,,,,119,59,1,0,0,response1disk,2,144,7,-5,1,0,0,rectangle,7,-5,1,0,0,3,0,"[124,294,130,177,260,152,65,59,314,58,174,199,121,93,51,41,63,134,169,141]",7,-5,1,0,0,0,143,143,108,1,,,,,,,,,,,,,,,,,,,,,,,
,,,,,,,,,,,,,,,,,,,,,,,,,,,,,,,,,,,,,,,,,,,5d891cd0a592de000185ca5b,5fe192a9eb5270c319c108e6,2020-12-22_07h31.17.015,FlowerSimilarity_Experiment,2020.1.2,Win32,60,5fe17d4a51f3a9c1a60f9869,,,,,,,,,,,,,,,,,,,6,PF,,7,1.836,,,,,,,,,,,,,,,,,,,,,,,,,,,,,,,,,,78,113,1,0,0,response1disk,4,145,39,13,1,0,0,rectangle,39,13,1,0,0,3,1,"[124,294,130,177,260,152,65,59,314,58,174,199,121,93,51,41,63,134,169,141]",39,13,1,0,0,0,144,144,33,1,,,,,,,,,,,,,,,,,,,,,,,
,,,,,,,,,,,,,,,,,,,,,,,,,,,,,,,,,,,,,,,,,,,5d891cd0a592de000185ca5b,5fe192a9eb5270c319c108e6,2020-12-22_07h31.17.015,FlowerSimilarity_Experiment,2020.1.2,Win32,60,5fe17d4a51f3a9c1a60f9869,,,,,,,,,,,,,,,,,,,4,PF,,5,1.301,,,,,,,,,,,,,,,,,,,,,,,,,,,,,,,,,,104,-56,1,0,0,response3disk,5,146,18,19,1,0,0,rectangle,18,19,1,0,0,3,6,"[124,294,130,177,260,152,65,59,314,58,174,199,121,93,51,41,63,134,169,141]",18,19,1,0,0,0,145,145,49,1,,,,,,,,,,,,,,,,,,,,,,,
,,,,,,,,,,,,,,,,,,,,,,,,,,,,,,,,,,,,,,,,,,,5d891cd0a592de000185ca5b,5fe192a9eb5270c319c108e6,2020-12-22_07h31.17.015,FlowerSimilarity_Experiment,2020.1.2,Win32,60,5fe17d4a51f3a9c1a60f9869,,,,,,,,,,,,,,,,,,,3,PF,,7,1.56,,,,,,,,,,,,,,,,,,,,,,,,,,,,,,,,,,59,105,1,0,0,response1disk,9,147,30,3,1,0,0,rectangle,30,3,1,0,0,3,1,"[124,294,130,177,260,152,65,59,314,58,174,199,121,93,51,41,63,134,169,141]",30,3,1,0,0,0,146,146,79,1,,,,,,,,,,,,,,,,,,,,,,,
,,,,,,,,,,,,,,,,,,,,,,,,,,,,,,,,,,,,,,,,,,,5d891cd0a592de000185ca5b,5fe192a9eb5270c319c108e6,2020-12-22_07h31.17.015,FlowerSimilarity_Experiment,2020.1.2,Win32,60,5fe17d4a51f3a9c1a60f9869,,,,,,,,,,,,,,,,,,,2,FF,,4,1.886,,,,,,,,,,,,,,,,,,,,,,,,,,,,,,,,,,56,-110,1,0,0,response3disk,9,148,22,16,1,0,0,rectangle,22,16,1,0,0,3,7,"[124,294,130,177,260,152,65,59,314,58,174,199,121,93,51,41,63,134,169,141]",22,16,1,0,0,0,147,147,72,1,,,,,,,,,,,,,,,,,,,,,,,
,,,,,,,,,,,,,,,,,,,,,,,,,,,,,,,,,,,,,,,,,,,5d891cd0a592de000185ca5b,5fe192a9eb5270c319c108e6,2020-12-22_07h31.17.015,FlowerSimilarity_Experiment,2020.1.2,Win32,60,5fe17d4a51f3a9c1a60f9869,,,,,,,,,,,,,,,,,,,1,FF,,5,1.371,,,,,,,,,,,,,,,,,,,,,,,,,,,,,,,,,,104,-54,1,0,0,response3disk,9,149,14,-7,1,0,0,rectangle,14,-7,1,0,0,3,0,"[124,294,130,177,260,152,65,59,314,58,174,199,121,93,51,41,63,134,169,141]",14,-7,1,0,0,0,148,148,123,1,,,,,,,,,,,,,,,,,,,,,,,
,,,,,,,,,,,,,,,,,,,,,,,,,,,,,,,,,,,,,,,,,,,5d891cd0a592de000185ca5b,5fe192a9eb5270c319c108e6,2020-12-22_07h31.17.015,FlowerSimilarity_Experiment,2020.1.2,Win32,60,5fe17d4a51f3a9c1a60f9869,,,,,,,,,,,,,,,,,,,9,FF,,5,1.219,,,,,,,,,,,,,,,,,,,,,,,,,,,,,,,,,,101,-59,1,0,0,response3disk,2,150,21,-8,1,0,0,rectangle,21,-8,1,0,0,3,2,"[124,294,130,177,260,152,65,59,314,58,174,199,121,93,51,41,63,134,169,141]",21,-8,1,0,0,0,149,149,11,1,,,,,,,,,,,,,,,,,,,,,,,
,,,,,,,,,,,,,,,,,,,,,,,,,,,,,,,,,,,,,,,,,,,5d891cd0a592de000185ca5b,5fe192a9eb5270c319c108e6,2020-12-22_07h31.17.015,FlowerSimilarity_Experiment,2020.1.2,Win32,60,5fe17d4a51f3a9c1a60f9869,,,,,,,,,,,,,,,,,,,5,FF,,7,1.092,,,,,,,,,,,,,,,,,,,,,,,,,,,,,,,,,,54,121,1,0,0,response1disk,6,151,3,1,1,0,0,rectangle,3,1,1,0,0,3,5,"[124,294,130,177,260,152,65,59,314,58,174,199,121,93,51,41,63,134,169,141]",3,1,1,0,0,0,150,150,12,1,,,,,,,,,,,,,,,,,,,,,,,
,,,,,,,,,,,,,,,,,,,,,,,,,,,,,,,,,,,,,,,,,,,5d891cd0a592de000185ca5b,5fe192a9eb5270c319c108e6,2020-12-22_07h31.17.015,FlowerSimilarity_Experiment,2020.1.2,Win32,60,5fe17d4a51f3a9c1a60f9869,,,,,,,,,,,,,,,,,,,1,PF,,7,2.329,,,,,,,,,,,,,,,,,,,,,,,,,,,,,,,,,,51,102,1,0,0,response1disk,4,152,7,10,1,0,0,rectangle,35,-129,1,0,0,4,4,"[124,294,130,177,260,152,65,59,314,58,174,199,121,93,51,41,63,134,169,141]",23,-6,1,0,0,0,151,151,139,1,response3disk_3,rectangle,,,,,,,,,,,,,,,,,,,,,
,,,,,,,,,,,,,,,,,,,,,,,,,,,,,,,,,,,,,,,,,,,5d891cd0a592de000185ca5b,5fe192a9eb5270c319c108e6,2020-12-22_07h31.17.015,FlowerSimilarity_Experiment,2020.1.2,Win32,60,5fe17d4a51f3a9c1a60f9869,,,,,,,,,,,,,,,,,,,2,FF,,5,1.748,,,,,,,,,,,,,,,,,,,,,,,,,,,,,,,,,,116,-52,1,0,0,response3disk,7,153,16,-1,1,0,0,rectangle,16,-1,1,0,0,4,0,"[124,294,130,177,260,152,65,59,314,58,174,199,121,93,51,41,63,134,169,141]",16,-1,1,0,0,0,152,152,63,1,,,,,,,,,,,,,,,,,,,,,,,
,,,,,,,,,,,,,,,,,,,,,,,,,,,,,,,,,,,,,,,,,,,5d891cd0a592de000185ca5b,5fe192a9eb5270c319c108e6,2020-12-22_07h31.17.015,FlowerSimilarity_Experiment,2020.1.2,Win32,60,5fe17d4a51f3a9c1a60f9869,,,,,,,,,,,,,,,,,,,5,PF,,7,1.414,,,,,,,,,,,,,,,,,,,,,,,,,,,,,,,,,,61,97,1,0,0,response1disk,8,154,37,1,1,0,0,rectangle,37,1,1,0,0,4,6,"[124,294,130,177,260,152,65,59,314,58,174,199,121,93,51,41,63,134,169,141]",37,1,1,0,0,0,153,153,149,1,,,,,,,,,,,,,,,,,,,,,,,
,,,,,,,,,,,,,,,,,,,,,,,,,,,,,,,,,,,,,,,,,,,5d891cd0a592de000185ca5b,5fe192a9eb5270c319c108e6,2020-12-22_07h31.17.015,FlowerSimilarity_Experiment,2020.1.2,Win32,60,5fe17d4a51f3a9c1a60f9869,,,,,,,,,,,,,,,,,,,8,PF,,6,0.984,,,,,,,,,,,,,,,,,,,,,,,,,,,,,,,,,,111,53,1,0,0,response1disk,3,155,29,3,1,0,0,rectangle,29,3,1,0,0,4,1,"[124,294,130,177,260,152,65,59,314,58,174,199,121,93,51,41,63,134,169,141]",29,3,1,0,0,0,154,154,71,1,,,,,,,,,,,,,,,,,,,,,,,
,,,,,,,,,,,,,,,,,,,,,,,,,,,,,,,,,,,,,,,,,,,5d891cd0a592de000185ca5b,5fe192a9eb5270c319c108e6,2020-12-22_07h31.17.015,FlowerSimilarity_Experiment,2020.1.2,Win32,60,5fe17d4a51f3a9c1a60f9869,,,,,,,,,,,,,,,,,,,7,FF,,7,0.88,,,,,,,,,,,,,,,,,,,,,,,,,,,,,,,,,,74,107,1,0,0,response1disk,2,156,39,-5,1,0,0,rectangle,39,-5,1,0,0,4,7,"[124,294,130,177,260,152,65,59,314,58,174,199,121,93,51,41,63,134,169,141]",39,-5,1,0,0,0,155,155,138,1,,,,,,,,,,,,,,,,,,,,,,,
,,,,,,,,,,,,,,,,,,,,,,,,,,,,,,,,,,,,,,,,,,,5d891cd0a592de000185ca5b,5fe192a9eb5270c319c108e6,2020-12-22_07h31.17.015,FlowerSimilarity_Experiment,2020.1.2,Win32,60,5fe17d4a51f3a9c1a60f9869,,,,,,,,,,,,,,,,,,,1,FF,,4,1.594,,,,,,,,,,,,,,,,,,,,,,,,,,,,,,,,,,69,-102,1,0,0,response3disk,3,157,28,2,1,0,0,rectangle,28,2,1,0,0,4,3,"[124,294,130,177,260,152,65,59,314,58,174,199,121,93,51,41,63,134,169,141]",28,2,1,0,0,0,156,156,99,1,,,,,,,,,,,,,,,,,,,,,,,
,,,,,,,,,,,,,,,,,,,,,,,,,,,,,,,,,,,,,,,,,,,5d891cd0a592de000185ca5b,5fe192a9eb5270c319c108e6,2020-12-22_07h31.17.015,FlowerSimilarity_Experiment,2020.1.2,Win32,60,5fe17d4a51f3a9c1a60f9869,,,,,,,,,,,,,,,,,,,1,PF,,3,1.864,,,,,,,,,,,,,,,,,,,,,,,,,,,,,,,,,,-76,-116,1,0,0,response5disk,1,158,-16,-2,1,0,0,rectangle,-16,-2,1,0,0,4,5,"[124,294,130,177,260,152,65,59,314,58,174,199,121,93,51,41,63,134,169,141]",-16,-2,1,0,0,0,157,157,76,1,,,,,,,,,,,,,,,,,,,,,,,
,,,,,,,,,,,,,,,,,,,,,,,,,,,,,,,,,,,,,,,,,,,5d891cd0a592de000185ca5b,5fe192a9eb5270c319c108e6,2020-12-22_07h31.17.015,FlowerSimilarity_Experiment,2020.1.2,Win32,60,5fe17d4a51f3a9c1a60f9869,,,,,,,,,,,,,,,,,,,8,PF,,7,1.151,,,,,,,,,,,,,,,,,,,,,,,,,,,,,,,,,,51,110,1,0,0,response1disk,6,159,-8,-13,1,0,0,rectangle,-8,-13,1,0,0,4,6,"[124,294,130,177,260,152,65,59,314,58,174,199,121,93,51,41,63,134,169,141]",-8,-13,1,0,0,0,158,158,161,1,,,,,,,,,,,,,,,,,,,,,,,
,,,,,,,,,,,,,,,,,,,,,,,,,,,,,,,,,,,,,,,,,,,5d891cd0a592de000185ca5b,5fe192a9eb5270c319c108e6,2020-12-22_07h31.17.015,FlowerSimilarity_Experiment,2020.1.2,Win32,60,5fe17d4a51f3a9c1a60f9869,,,,,,,,,,,,,,,,,,,5,PF,,1,1.96,,,,,,,,,,,,,,,,,,,,,,,,,,,,,,,,,,-84,66,1,0,0,response7disk,5,160,15,-3,1,0,0,rectangle,15,-3,1,0,0,4,3,"[124,294,130,177,260,152,65,59,314,58,174,199,121,93,51,41,63,134,169,141]",15,-3,1,0,0,0,159,159,94,1,,,,,,,,,,,,,,,,,,,,,,,
,,,,,,,,,,,,,,,,,,,,,,,,,,,,,,,,,,,,,,,,,,,5d891cd0a592de000185ca5b,5fe192a9eb5270c319c108e6,2020-12-22_07h31.17.015,FlowerSimilarity_Experiment,2020.1.2,Win32,60,5fe17d4a51f3a9c1a60f9869,,,,,,,,,,,,,,,,,,,9,PF,,3,1.62,,,,,,,,,,,,,,,,,,,,,,,,,,,,,,,,,,-42,-109,1,0,0,response5disk,1,161,-4,9,1,0,0,rectangle,-4,9,1,0,0,4,1,"[124,294,130,177,260,152,65,59,314,58,174,199,121,93,51,41,63,134,169,141]",-4,9,1,0,0,0,160,160,74,1,,,,,,,,,,,,,,,,,,,,,,,
,,,,,,,,,,,,,,,,,,,,,,,,,,,,,,,,,,,,,,,,,,,5d891cd0a592de000185ca5b,5fe192a9eb5270c319c108e6,2020-12-22_07h31.17.015,FlowerSimilarity_Experiment,2020.1.2,Win32,60,5fe17d4a51f3a9c1a60f9869,,,,,,,,,,,,,,,,,,,4,PF,,7,1.563,,,,,,,,,,,,,,,,,,,,,,,,,,,,,,,,,,54,101,1,0,0,response1disk,3,162,19,8,1,0,0,rectangle,19,8,1,0,0,4,5,"[124,294,130,177,260,152,65,59,314,58,174,199,121,93,51,41,63,134,169,141]",19,8,1,0,0,0,161,161,89,1,,,,,,,,,,,,,,,,,,,,,,,
,,,,,,,,,,,,,,,,,,,,,,,,,,,,,,,,,,,,,,,,,,,5d891cd0a592de000185ca5b,5fe192a9eb5270c319c108e6,2020-12-22_07h31.17.015,FlowerSimilarity_Experiment,2020.1.2,Win32,60,5fe17d4a51f3a9c1a60f9869,,,,,,,,,,,,,,,,,,,,,,,,,,,,,,,,,,,,,,,,,,,,,,,,,,,,,,,,,,,,,,,,,,,,,,,,,,,,,,,,,,,,,,,,,,,0,0,0,0,1,,,,,,,,,,,,,,,,
,,,,,,,,,,,,,,,,,,,,,,,,,,,,,,,,,,,,,,,,,,,5d891cd0a592de000185ca5b,5fe192a9eb5270c319c108e6,2020-12-22_07h31.17.015,FlowerSimilarity_Experiment,2020.1.2,Win32,60,5fe17d4a51f3a9c1a60f9869,,,,,,,,,,,,,,,,,,,8,FF,,6,2.415,,,,,,,,,,,,,,,,,,,,,,,,,,,,,,,,,,100,49,1,0,0,response1disk,7,163,-23,4,1,0,0,rectangle,-23,4,1,0,0,4,5,"[124,294,130,177,260,152,65,59,314,58,174,199,121,93,51,41,63,134,169,141]",-23,4,1,0,0,0,0,0,86,1,,,,,,,,,,,,,,,,,,,,,,,
,,,,,,,,,,,,,,,,,,,,,,,,,,,,,,,,,,,,,,,,,,,5d891cd0a592de000185ca5b,5fe192a9eb5270c319c108e6,2020-12-22_07h31.17.015,FlowerSimilarity_Experiment,2020.1.2,Win32,60,5fe17d4a51f3a9c1a60f9869,,,,,,,,,,,,,,,,,,,7,PF,,7,1.968,,,,,,,,,,,,,,,,,,,,,,,,,,,,,,,,,,63,107,1,0,0,response1disk,6,164,24,20,1,0,0,rectangle,24,20,1,0,0,4,2,"[124,294,130,177,260,152,65,59,314,58,174,199,121,93,51,41,63,134,169,141]",24,20,1,0,0,0,1,1,29,1,,,,,,,,,,,,,,,,,,,,,,,
,,,,,,,,,,,,,,,,,,,,,,,,,,,,,,,,,,,,,,,,,,,5d891cd0a592de000185ca5b,5fe192a9eb5270c319c108e6,2020-12-22_07h31.17.015,FlowerSimilarity_Experiment,2020.1.2,Win32,60,5fe17d4a51f3a9c1a60f9869,,,,,,,,,,,,,,,,,,,9,FF,,5,1.543,,,,,,,,,,,,,,,,,,,,,,,,,,,,,,,,,,102,-54,1,0,0,response3disk,8,165,-2,12,1,0,0,rectangle,-2,12,1,0,0,4,1,"[124,294,130,177,260,152,65,59,314,58,174,199,121,93,51,41,63,134,169,141]",-2,12,1,0,0,0,2,2,6,1,,,,,,,,,,,,,,,,,,,,,,,
,,,,,,,,,,,,,,,,,,,,,,,,,,,,,,,,,,,,,,,,,,,5d891cd0a592de000185ca5b,5fe192a9eb5270c319c108e6,2020-12-22_07h31.17.015,FlowerSimilarity_Experiment,2020.1.2,Win32,60,5fe17d4a51f3a9c1a60f9869,,,,,,,,,,,,,,,,,,,6,FF,,7,0.902,,,,,,,,,,,,,,,,,,,,,,,,,,,,,,,,,,67,113,1,0,0,response1disk,3,166,38,8,1,0,0,rectangle,38,8,1,0,0,4,1,"[124,294,130,177,260,152,65,59,314,58,174,199,121,93,51,41,63,134,169,141]",38,8,1,0,0,0,3,3,21,1,,,,,,,,,,,,,,,,,,,,,,,
,,,,,,,,,,,,,,,,,,,,,,,,,,,,,,,,,,,,,,,,,,,5d891cd0a592de000185ca5b,5fe192a9eb5270c319c108e6,2020-12-22_07h31.17.015,FlowerSimilarity_Experiment,2020.1.2,Win32,60,5fe17d4a51f3a9c1a60f9869,,,,,,,,,,,,,,,,,,,6,PF,,7,0.747,,,,,,,,,,,,,,,,,,,,,,,,,,,,,,,,,,56,104,1,0,0,response1disk,7,167,24,-8,1,0,0,rectangle,24,-8,1,0,0,4,0,"[124,294,130,177,260,152,65,59,314,58,174,199,121,93,51,41,63,134,169,141]",24,-8,1,0,0,0,4,4,50,1,,,,,,,,,,,,,,,,,,,,,,,
,,,,,,,,,,,,,,,,,,,,,,,,,,,,,,,,,,,,,,,,,,,5d891cd0a592de000185ca5b,5fe192a9eb5270c319c108e6,2020-12-22_07h31.17.015,FlowerSimilarity_Experiment,2020.1.2,Win32,60,5fe17d4a51f3a9c1a60f9869,,,,,,,,,,,,,,,,,,,9,PF,,7,0.679,,,,,,,,,,,,,,,,,,,,,,,,,,,,,,,,,,51,113,1,0,0,response1disk,8,168,9,-6,1,0,0,rectangle,9,-6,1,0,0,4,2,"[124,294,130,177,260,152,65,59,314,58,174,199,121,93,51,41,63,134,169,141]",9,-6,1,0,0,0,5,5,67,1,,,,,,,,,,,,,,,,,,,,,,,
,,,,,,,,,,,,,,,,,,,,,,,,,,,,,,,,,,,,,,,,,,,5d891cd0a592de000185ca5b,5fe192a9eb5270c319c108e6,2020-12-22_07h31.17.015,FlowerSimilarity_Experiment,2020.1.2,Win32,60,5fe17d4a51f3a9c1a60f9869,,,,,,,,,,,,,,,,,,,6,PF,,7,0.901,,,,,,,,,,,,,,,,,,,,,,,,,,,,,,,,,,42,112,1,0,0,response1disk,8,169,14,3,1,0,0,rectangle,133,46,1,0,0,6,6,"[124,294,130,177,260,152,65,59,314,58,174,199,121,93,51,41,63,134,169,141]",17,5,1,0,0,0,6,6,64,1,response1disk_3,rectangle,,,,,,,,,,,,,,,,,,,,,
,,,,,,,,,,,,,,,,,,,,,,,,,,,,,,,,,,,,,,,,,,,5d891cd0a592de000185ca5b,5fe192a9eb5270c319c108e6,2020-12-22_07h31.17.015,FlowerSimilarity_Experiment,2020.1.2,Win32,60,5fe17d4a51f3a9c1a60f9869,,,,,,,,,,,,,,,,,,,6,FF,,7,2.386,,,,,,,,,,,,,,,,,,,,,,,,,,,,,,,,,,47,102,1,0,0,response1disk,1,170,21,11,1,0,0,rectangle,21,11,1,0,0,6,5,"[124,294,130,177,260,152,65,59,314,58,174,199,121,93,51,41,63,134,169,141]",21,11,1,0,0,0,7,7,5,1,,,,,,,,,,,,,,,,,,,,,,,
,,,,,,,,,,,,,,,,,,,,,,,,,,,,,,,,,,,,,,,,,,,5d891cd0a592de000185ca5b,5fe192a9eb5270c319c108e6,2020-12-22_07h31.17.015,FlowerSimilarity_Experiment,2020.1.2,Win32,60,5fe17d4a51f3a9c1a60f9869,,,,,,,,,,,,,,,,,,,5,PF,,7,2.294,,,,,,,,,,,,,,,,,,,,,,,,,,,,,,,,,,66,108,1,0,0,response1disk,9,171,24,18,1,0,0,rectangle,24,18,1,0,0,6,0,"[124,294,130,177,260,152,65,59,314,58,174,199,121,93,51,41,63,134,169,141]",24,18,1,0,0,0,8,8,136,1,,,,,,,,,,,,,,,,,,,,,,,
,,,,,,,,,,,,,,,,,,,,,,,,,,,,,,,,,,,,,,,,,,,5d891cd0a592de000185ca5b,5fe192a9eb5270c319c108e6,2020-12-22_07h31.17.015,FlowerSimilarity_Experiment,2020.1.2,Win32,60,5fe17d4a51f3a9c1a60f9869,,,,,,,,,,,,,,,,,,,5,FF,,3,1.593,,,,,,,,,,,,,,,,,,,,,,,,,,,,,,,,,,-58,-97,1,0,0,response5disk,8,172,-5,9,1,0,0,rectangle,-5,9,1,0,0,6,7,"[124,294,130,177,260,152,65,59,314,58,174,199,121,93,51,41,63,134,169,141]",-5,9,1,0,0,0,9,9,16,1,,,,,,,,,,,,,,,,,,,,,,,
,,,,,,,,,,,,,,,,,,,,,,,,,,,,,,,,,,,,,,,,,,,5d891cd0a592de000185ca5b,5fe192a9eb5270c319c108e6,2020-12-22_07h31.17.015,FlowerSimilarity_Experiment,2020.1.2,Win32,60,5fe17d4a51f3a9c1a60f9869,,,,,,,,,,,,,,,,,,,8,FF,,4,1.51,,,,,,,,,,,,,,,,,,,,,,,,,,,,,,,,,,69,-129,1,0,0,response3disk,2,173,26,6,1,0,0,rectangle,26,6,1,0,0,6,3,"[124,294,130,177,260,152,65,59,314,58,174,199,121,93,51,41,63,134,169,141]",26,6,1,0,0,0,10,10,22,1,,,,,,,,,,,,,,,,,,,,,,,
,,,,,,,,,,,,,,,,,,,,,,,,,,,,,,,,,,,,,,,,,,,5d891cd0a592de000185ca5b,5fe192a9eb5270c319c108e6,2020-12-22_07h31.17.015,FlowerSimilarity_Experiment,2020.1.2,Win32,60,5fe17d4a51f3a9c1a60f9869,,,,,,,,,,,,,,,,,,,5,FF,,4,1.198,,,,,,,,,,,,,,,,,,,,,,,,,,,,,,,,,,41,-105,1,0,0,response3disk,2,174,21,7,1,0,0,rectangle,-63,115,1,0,0,0,0,"[124,294,130,177,260,152,65,59,314,58,174,199,121,93,51,41,63,134,169,141]",9,0,1,0,0,0,11,11,55,1,response7disk_3,rectangle,,,,,,,,,,,,,,,,,,,,,
,,,,,,,,,,,,,,,,,,,,,,,,,,,,,,,,,,,,,,,,,,,5d891cd0a592de000185ca5b,5fe192a9eb5270c319c108e6,2020-12-22_07h31.17.015,FlowerSimilarity_Experiment,2020.1.2,Win32,60,5fe17d4a51f3a9c1a60f9869,,,,,,,,,,,,,,,,,,,6,FF,,6,1.548,,,,,,,,,,,,,,,,,,,,,,,,,,,,,,,,,,115,69,1,0,0,response1disk,8,175,33,11,1,0,0,rectangle,33,11,1,0,0,0,0,"[124,294,130,177,260,152,65,59,314,58,174,199,121,93,51,41,63,134,169,141]",33,11,1,0,0,0,12,12,133,1,,,,,,,,,,,,,,,,,,,,,,,
,,,,,,,,,,,,,,,,,,,,,,,,,,,,,,,,,,,,,,,,,,,5d891cd0a592de000185ca5b,5fe192a9eb5270c319c108e6,2020-12-22_07h31.17.015,FlowerSimilarity_Experiment,2020.1.2,Win32,60,5fe17d4a51f3a9c1a60f9869,,,,,,,,,,,,,,,,,,,5,FF,,6,0.906,,,,,,,,,,,,,,,,,,,,,,,,,,,,,,,,,,104,62,1,0,0,response1disk,3,176,21,1,1,0,0,rectangle,21,1,1,0,0,0,0,"[124,294,130,177,260,152,65,59,314,58,174,199,121,93,51,41,63,134,169,141]",21,1,1,0,0,0,13,13,25,1,,,,,,,,,,,,,,,,,,,,,,,
,,,,,,,,,,,,,,,,,,,,,,,,,,,,,,,,,,,,,,,,,,,5d891cd0a592de000185ca5b,5fe192a9eb5270c319c108e6,2020-12-22_07h31.17.015,FlowerSimilarity_Experiment,2020.1.2,Win32,60,5fe17d4a51f3a9c1a60f9869,,,,,,,,,,,,,,,,,,,8,PF,,6,0.988,,,,,,,,,,,,,,,,,,,,,,,,,,,,,,,,,,113,66,1,0,0,response1disk,7,177,23,-4,1,0,0,rectangle,-48,-106,1,0,0,3,3,"[124,294,130,177,260,152,65,59,314,58,174,199,121,93,51,41,63,134,169,141]",-5,2,1,0,0,0,14,14,23,1,response5disk_3,rectangle,,,,,,,,,,,,,,,,,,,,,
,,,,,,,,,,,,,,,,,,,,,,,,,,,,,,,,,,,,,,,,,,,5d891cd0a592de000185ca5b,5fe192a9eb5270c319c108e6,2020-12-22_07h31.17.015,FlowerSimilarity_Experiment,2020.1.2,Win32,60,5fe17d4a51f3a9c1a60f9869,,,,,,,,,,,,,,,,,,,8,PF,,4,1.589,,,,,,,,,,,,,,,,,,,,,,,,,,,,,,,,,,44,-104,1,0,0,response3disk,4,178,14,-2,1,0,0,rectangle,14,-2,1,0,0,3,4,"[124,294,130,177,260,152,65,59,314,58,174,199,121,93,51,41,63,134,169,141]",14,-2,1,0,0,0,15,15,78,1,,,,,,,,,,,,,,,,,,,,,,,
,,,,,,,,,,,,,,,,,,,,,,,,,,,,,,,,,,,,,,,,,,,5d891cd0a592de000185ca5b,5fe192a9eb5270c319c108e6,2020-12-22_07h31.17.015,FlowerSimilarity_Experiment,2020.1.2,Win32,60,5fe17d4a51f3a9c1a60f9869,,,,,,,,,,,,,,,,,,,1,PF,,4,1.111,,,,,,,,,,,,,,,,,,,,,,,,,,,,,,,,,,53,-122,1,0,0,response3disk,9,179,26,1,1,0,0,rectangle,26,1,1,0,0,3,0,"[124,294,130,177,260,152,65,59,314,58,174,199,121,93,51,41,63,134,169,141]",26,1,1,0,0,0,16,16,15,1,,,,,,,,,,,,,,,,,,,,,,,
,,,,,,,,,,,,,,,,,,,,,,,,,,,,,,,,,,,,,,,,,,,5d891cd0a592de000185ca5b,5fe192a9eb5270c319c108e6,2020-12-22_07h31.17.015,FlowerSimilarity_Experiment,2020.1.2,Win32,60,5fe17d4a51f3a9c1a60f9869,,,,,,,,,,,,,,,,,,,2,FF,,7,2.456,,,,,,,,,,,,,,,,,,,,,,,,,,,,,,,,,,60,108,1,0,0,response1disk,5,180,21,-15,1,0,0,rectangle,21,-15,1,0,0,3,4,"[124,294,130,177,260,152,65,59,314,58,174,199,121,93,51,41,63,134,169,141]",21,-15,1,0,0,0,17,17,80,1,,,,,,,,,,,,,,,,,,,,,,,
,,,,,,,,,,,,,,,,,,,,,,,,,,,,,,,,,,,,,,,,,,,5d891cd0a592de000185ca5b,5fe192a9eb5270c319c108e6,2020-12-22_07h31.17.015,FlowerSimilarity_Experiment,2020.1.2,Win32,60,5fe17d4a51f3a9c1a60f9869,,,,,,,,,,,,,,,,,,,6,FF,,6,1.073,,,,,,,,,,,,,,,,,,,,,,,,,,,,,,,,,,111,45,1,0,0,response1disk,7,181,10,-11,1,0,0,rectangle,10,-11,1,0,0,3,2,"[124,294,130,177,260,152,65,59,314,58,174,199,121,93,51,41,63,134,169,141]",10,-11,1,0,0,0,18,18,18,1,,,,,,,,,,,,,,,,,,,,,,,
,,,,,,,,,,,,,,,,,,,,,,,,,,,,,,,,,,,,,,,,,,,5d891cd0a592de000185ca5b,5fe192a9eb5270c319c108e6,2020-12-22_07h31.17.015,FlowerSimilarity_Experiment,2020.1.2,Win32,60,5fe17d4a51f3a9c1a60f9869,,,,,,,,,,,,,,,,,,,9,PF,,6,0.792,,,,,,,,,,,,,,,,,,,,,,,,,,,,,,,,,,119,64,1,0,0,response1disk,3,182,-14,-6,1,0,0,rectangle,-14,-6,1,0,0,3,6,"[124,294,130,177,260,152,65,59,314,58,174,199,121,93,51,41,63,134,169,141]",-14,-6,1,0,0,0,19,19,119,1,,,,,,,,,,,,,,,,,,,,,,,
,,,,,,,,,,,,,,,,,,,,,,,,,,,,,,,,,,,,,,,,,,,5d891cd0a592de000185ca5b,5fe192a9eb5270c319c108e6,2020-12-22_07h31.17.015,FlowerSimilarity_Experiment,2020.1.2,Win32,60,5fe17d4a51f3a9c1a60f9869,,,,,,,,,,,,,,,,,,,2,FF,,6,0.806,,,,,,,,,,,,,,,,,,,,,,,,,,,,,,,,,,110,41,1,0,0,response1disk,1,183,40,0,1,0,0,rectangle,40,0,1,0,0,3,5,"[124,294,130,177,260,152,65,59,314,58,174,199,121,93,51,41,63,134,169,141]",40,0,1,0,0,0,20,20,85,1,,,,,,,,,,,,,,,,,,,,,,,
,,,,,,,,,,,,,,,,,,,,,,,,,,,,,,,,,,,,,,,,,,,5d891cd0a592de000185ca5b,5fe192a9eb5270c319c108e6,2020-12-22_07h31.17.015,FlowerSimilarity_Experiment,2020.1.2,Win32,60,5fe17d4a51f3a9c1a60f9869,,,,,,,,,,,,,,,,,,,9,FF,,7,0.938,,,,,,,,,,,,,,,,,,,,,,,,,,,,,,,,,,79,120,1,0,0,response1disk,7,184,16,1,1,0,0,rectangle,16,1,1,0,0,3,2,"[124,294,130,177,260,152,65,59,314,58,174,199,121,93,51,41,63,134,169,141]",16,1,1,0,0,0,21,21,100,1,,,,,,,,,,,,,,,,,,,,,,,
,,,,,,,,,,,,,,,,,,,,,,,,,,,,,,,,,,,,,,,,,,,5d891cd0a592de000185ca5b,5fe192a9eb5270c319c108e6,2020-12-22_07h31.17.015,FlowerSimilarity_Experiment,2020.1.2,Win32,60,5fe17d4a51f3a9c1a60f9869,,,,,,,,,,,,,,,,,,,7,FF,,7,1.134,,,,,,,,,,,,,,,,,,,,,,,,,,,,,,,,,,43,120,1,0,0,response1disk,5,185,-5,0,1,0,0,rectangle,-5,0,1,0,0,3,1,"[124,294,130,177,260,152,65,59,314,58,174,199,121,93,51,41,63,134,169,141]",-5,0,1,0,0,0,22,22,156,1,,,,,,,,,,,,,,,,,,,,,,,
,,,,,,,,,,,,,,,,,,,,,,,,,,,,,,,,,,,,,,,,,,,5d891cd0a592de000185ca5b,5fe192a9eb5270c319c108e6,2020-12-22_07h31.17.015,FlowerSimilarity_Experiment,2020.1.2,Win32,60,5fe17d4a51f3a9c1a60f9869,,,,,,,,,,,,,,,,,,,9,FF,,1,1.226,,,,,,,,,,,,,,,,,,,,,,,,,,,,,,,,,,-106,56,1,0,0,response7disk,9,186,-5,11,1,0,0,rectangle,-5,11,1,0,0,3,4,"[124,294,130,177,260,152,65,59,314,58,174,199,121,93,51,41,63,134,169,141]",-5,11,1,0,0,0,23,23,17,1,,,,,,,,,,,,,,,,,,,,,,,
,,,,,,,,,,,,,,,,,,,,,,,,,,,,,,,,,,,,,,,,,,,5d891cd0a592de000185ca5b,5fe192a9eb5270c319c108e6,2020-12-22_07h31.17.015,FlowerSimilarity_Experiment,2020.1.2,Win32,60,5fe17d4a51f3a9c1a60f9869,,,,,,,,,,,,,,,,,,,1,PF,,7,0.821,,,,,,,,,,,,,,,,,,,,,,,,,,,,,,,,,,58,114,1,0,0,response1disk,7,187,-5,5,1,0,0,rectangle,-5,5,1,0,0,3,5,"[124,294,130,177,260,152,65,59,314,58,174,199,121,93,51,41,63,134,169,141]",-5,5,1,0,0,0,24,24,150,1,,,,,,,,,,,,,,,,,,,,,,,
,,,,,,,,,,,,,,,,,,,,,,,,,,,,,,,,,,,,,,,,,,,5d891cd0a592de000185ca5b,5fe192a9eb5270c319c108e6,2020-12-22_07h31.17.015,FlowerSimilarity_Experiment,2020.1.2,Win32,60,5fe17d4a51f3a9c1a60f9869,,,,,,,,,,,,,,,,,,,1,FF,,3,1.939,,,,,,,,,,,,,,,,,,,,,,,,,,,,,,,,,,-33,-121,1,0,0,response5disk,7,188,34,0,1,0,0,rectangle,34,0,1,0,0,3,7,"[124,294,130,177,260,152,65,59,314,58,174,199,121,93,51,41,63,134,169,141]",34,0,1,0,0,0,25,25,137,1,,,,,,,,,,,,,,,,,,,,,,,
,,,,,,,,,,,,,,,,,,,,,,,,,,,,,,,,,,,,,,,,,,,5d891cd0a592de000185ca5b,5fe192a9eb5270c319c108e6,2020-12-22_07h31.17.015,FlowerSimilarity_Experiment,2020.1.2,Win32,60,5fe17d4a51f3a9c1a60f9869,,,,,,,,,,,,,,,,,,,8,FF,,7,0.922,,,,,,,,,,,,,,,,,,,,,,,,,,,,,,,,,,49,127,1,0,0,response1disk,4,189,-3,-1,1,0,0,rectangle,-3,-1,1,0,0,3,5,"[124,294,130,177,260,152,65,59,314,58,174,199,121,93,51,41,63,134,169,141]",-3,-1,1,0,0,0,26,26,88,1,,,,,,,,,,,,,,,,,,,,,,,
,,,,,,,,,,,,,,,,,,,,,,,,,,,,,,,,,,,,,,,,,,,5d891cd0a592de000185ca5b,5fe192a9eb5270c319c108e6,2020-12-22_07h31.17.015,FlowerSimilarity_Experiment,2020.1.2,Win32,60,5fe17d4a51f3a9c1a60f9869,,,,,,,,,,,,,,,,,,,3,PF,,7,1.426,,,,,,,,,,,,,,,,,,,,,,,,,,,,,,,,,,44,100,1,0,0,response1disk,8,190,0,-10,1,0,0,rectangle,0,-10,1,0,0,3,5,"[124,294,130,177,260,152,65,59,314,58,174,199,121,93,51,41,63,134,169,141]",0,-10,1,0,0,0,27,27,3,1,,,,,,,,,,,,,,,,,,,,,,,
,,,,,,,,,,,,,,,,,,,,,,,,,,,,,,,,,,,,,,,,,,,5d891cd0a592de000185ca5b,5fe192a9eb5270c319c108e6,2020-12-22_07h31.17.015,FlowerSimilarity_Experiment,2020.1.2,Win32,60,5fe17d4a51f3a9c1a60f9869,,,,,,,,,,,,,,,,,,,1,FF,,7,0.797,,,,,,,,,,,,,,,,,,,,,,,,,,,,,,,,,,61,114,1,0,0,response1disk,6,191,20,2,1,0,0,rectangle,20,2,1,0,0,3,7,"[124,294,130,177,260,152,65,59,314,58,174,199,121,93,51,41,63,134,169,141]",20,2,1,0,0,0,28,28,58,1,,,,,,,,,,,,,,,,,,,,,,,
,,,,,,,,,,,,,,,,,,,,,,,,,,,,,,,,,,,,,,,,,,,5d891cd0a592de000185ca5b,5fe192a9eb5270c319c108e6,2020-12-22_07h31.17.015,FlowerSimilarity_Experiment,2020.1.2,Win32,60,5fe17d4a51f3a9c1a60f9869,,,,,,,,,,,,,,,,,,,3,FF,,3,2.378,,,,,,,,,,,,,,,,,,,,,,,,,,,,,,,,,,-50,-92,1,0,0,response5disk,8,192,3,14,1,0,0,rectangle,3,14,1,0,0,3,0,"[124,294,130,177,260,152,65,59,314,58,174,199,121,93,51,41,63,134,169,141]",3,14,1,0,0,0,29,29,44,1,,,,,,,,,,,,,,,,,,,,,,,
,,,,,,,,,,,,,,,,,,,,,,,,,,,,,,,,,,,,,,,,,,,5d891cd0a592de000185ca5b,5fe192a9eb5270c319c108e6,2020-12-22_07h31.17.015,FlowerSimilarity_Experiment,2020.1.2,Win32,60,5fe17d4a51f3a9c1a60f9869,,,,,,,,,,,,,,,,,,,9,FF,,7,1.084,,,,,,,,,,,,,,,,,,,,,,,,,,,,,,,,,,55,108,1,0,0,response1disk,4,193,23,0,1,0,0,rectangle,23,0,1,0,0,3,4,"[124,294,130,177,260,152,65,59,314,58,174,199,121,93,51,41,63,134,169,141]",23,0,1,0,0,0,30,30,60,1,,,,,,,,,,,,,,,,,,,,,,,
,,,,,,,,,,,,,,,,,,,,,,,,,,,,,,,,,,,,,,,,,,,5d891cd0a592de000185ca5b,5fe192a9eb5270c319c108e6,2020-12-22_07h31.17.015,FlowerSimilarity_Experiment,2020.1.2,Win32,60,5fe17d4a51f3a9c1a60f9869,,,,,,,,,,,,,,,,,,,2,PF,,7,0.809,,,,,,,,,,,,,,,,,,,,,,,,,,,,,,,,,,48,110,1,0,0,response1disk,7,194,-1,-7,1,0,0,rectangle,-1,-7,1,0,0,3,4,"[124,294,130,177,260,152,65,59,314,58,174,199,121,93,51,41,63,134,169,141]",-1,-7,1,0,0,0,31,31,107,1,,,,,,,,,,,,,,,,,,,,,,,
,,,,,,,,,,,,,,,,,,,,,,,,,,,,,,,,,,,,,,,,,,,5d891cd0a592de000185ca5b,5fe192a9eb5270c319c108e6,2020-12-22_07h31.17.015,FlowerSimilarity_Experiment,2020.1.2,Win32,60,5fe17d4a51f3a9c1a60f9869,,,,,,,,,,,,,,,,,,,7,PF,,0,1.068,,,,,,,,,,,,,,,,,,,,,,,,,,,,,,,,,,-48,112,1,0,0,response7disk,7,195,-19,7,1,0,0,rectangle,-19,7,1,0,0,3,4,"[124,294,130,177,260,152,65,59,314,58,174,199,121,93,51,41,63,134,169,141]",-19,7,1,0,0,0,32,32,51,1,,,,,,,,,,,,,,,,,,,,,,,
,,,,,,,,,,,,,,,,,,,,,,,,,,,,,,,,,,,,,,,,,,,5d891cd0a592de000185ca5b,5fe192a9eb5270c319c108e6,2020-12-22_07h31.17.015,FlowerSimilarity_Experiment,2020.1.2,Win32,60,5fe17d4a51f3a9c1a60f9869,,,,,,,,,,,,,,,,,,,8,FF,,0,0.955,,,,,,,,,,,,,,,,,,,,,,,,,,,,,,,,,,-77,112,1,0,0,response7disk,8,196,-22,15,1,0,0,rectangle,-22,15,1,0,0,3,6,"[124,294,130,177,260,152,65,59,314,58,174,199,121,93,51,41,63,134,169,141]",-22,15,1,0,0,0,33,33,48,1,,,,,,,,,,,,,,,,,,,,,,,
,,,,,,,,,,,,,,,,,,,,,,,,,,,,,,,,,,,,,,,,,,,5d891cd0a592de000185ca5b,5fe192a9eb5270c319c108e6,2020-12-22_07h31.17.015,FlowerSimilarity_Experiment,2020.1.2,Win32,60,5fe17d4a51f3a9c1a60f9869,,,,,,,,,,,,,,,,,,,8,FF,,1,1.259,,,,,,,,,,,,,,,,,,,,,,,,,,,,,,,,,,-112,51,1,0,0,response7disk,3,197,-21,16,1,0,0,rectangle,-21,16,1,0,0,3,2,"[124,294,130,177,260,152,65,59,314,58,174,199,121,93,51,41,63,134,169,141]",-21,16,1,0,0,0,34,34,154,1,,,,,,,,,,,,,,,,,,,,,,,
,,,,,,,,,,,,,,,,,,,,,,,,,,,,,,,,,,,,,,,,,,,5d891cd0a592de000185ca5b,5fe192a9eb5270c319c108e6,2020-12-22_07h31.17.015,FlowerSimilarity_Experiment,2020.1.2,Win32,60,5fe17d4a51f3a9c1a60f9869,,,,,,,,,,,,,,,,,,,7,FF,,1,1.03,,,,,,,,,,,,,,,,,,,,,,,,,,,,,,,,,,-92,54,1,0,0,response7disk,3,198,-8,8,1,0,0,rectangle,-8,8,1,0,0,3,2,"[124,294,130,177,260,152,65,59,314,58,174,199,121,93,51,41,63,134,169,141]",-8,8,1,0,0,0,35,35,73,1,,,,,,,,,,,,,,,,,,,,,,,
,,,,,,,,,,,,,,,,,,,,,,,,,,,,,,,,,,,,,,,,,,,5d891cd0a592de000185ca5b,5fe192a9eb5270c319c108e6,2020-12-22_07h31.17.015,FlowerSimilarity_Experiment,2020.1.2,Win32,60,5fe17d4a51f3a9c1a60f9869,,,,,,,,,,,,,,,,,,,3,FF,,0,0.839,,,,,,,,,,,,,,,,,,,,,,,,,,,,,,,,,,-85,117,1,0,0,response7disk,7,199,5,4,1,0,0,rectangle,113,62,1,0,0,6,6,"[124,294,130,177,260,152,65,59,314,58,174,199,121,93,51,41,63,134,169,141]",11,-7,1,0,0,0,36,36,118,1,response1disk_3,rectangle,,,,,,,,,,,,,,,,,,,,,
,,,,,,,,,,,,,,,,,,,,,,,,,,,,,,,,,,,,,,,,,,,5d891cd0a592de000185ca5b,5fe192a9eb5270c319c108e6,2020-12-22_07h31.17.015,FlowerSimilarity_Experiment,2020.1.2,Win32,60,5fe17d4a51f3a9c1a60f9869,,,,,,,,,,,,,,,,,,,4,FF,,7,1.147,,,,,,,,,,,,,,,,,,,,,,,,,,,,,,,,,,76,126,1,0,0,response1disk,3,200,27,-4,1,0,0,rectangle,27,-4,1,0,0,6,5,"[124,294,130,177,260,152,65,59,314,58,174,199,121,93,51,41,63,134,169,141]",27,-4,1,0,0,0,37,37,77,1,,,,,,,,,,,,,,,,,,,,,,,
,,,,,,,,,,,,,,,,,,,,,,,,,,,,,,,,,,,,,,,,,,,5d891cd0a592de000185ca5b,5fe192a9eb5270c319c108e6,2020-12-22_07h31.17.015,FlowerSimilarity_Experiment,2020.1.2,Win32,60,5fe17d4a51f3a9c1a60f9869,,,,,,,,,,,,,,,,,,,9,FF,,7,1.055,,,,,,,,,,,,,,,,,,,,,,,,,,,,,,,,,,27,109,1,0,0,response1disk,1,201,-1,2,1,0,0,rectangle,-1,2,1,0,0,6,4,"[124,294,130,177,260,152,65,59,314,58,174,199,121,93,51,41,63,134,169,141]",-1,2,1,0,0,0,38,38,111,1,,,,,,,,,,,,,,,,,,,,,,,
,,,,,,,,,,,,,,,,,,,,,,,,,,,,,,,,,,,,,,,,,,,5d891cd0a592de000185ca5b,5fe192a9eb5270c319c108e6,2020-12-22_07h31.17.015,FlowerSimilarity_Experiment,2020.1.2,Win32,60,5fe17d4a51f3a9c1a60f9869,,,,,,,,,,,,,,,,,,,3,FF,,0,0.872,,,,,,,,,,,,,,,,,,,,,,,,,,,,,,,,,,-52,129,1,0,0,response7disk,3,202,10,-8,1,0,0,rectangle,10,-8,1,0,0,6,7,"[124,294,130,177,260,152,65,59,314,58,174,199,121,93,51,41,63,134,169,141]",10,-8,1,0,0,0,39,39,68,1,,,,,,,,,,,,,,,,,,,,,,,
,,,,,,,,,,,,,,,,,,,,,,,,,,,,,,,,,,,,,,,,,,,5d891cd0a592de000185ca5b,5fe192a9eb5270c319c108e6,2020-12-22_07h31.17.015,FlowerSimilarity_Experiment,2020.1.2,Win32,60,5fe17d4a51f3a9c1a60f9869,,,,,,,,,,,,,,,,,,,1,PF,,6,3.671,,,,,,,,,,,,,,,,,,,,,,,,,,,,,,,,,,130,53,1,0,0,response1disk,3,203,6,13,1,0,0,rectangle,6,13,1,0,0,6,1,"[124,294,130,177,260,152,65,59,314,58,174,199,121,93,51,41,63,134,169,141]",6,13,1,0,0,0,40,40,1,1,,,,,,,,,,,,,,,,,,,,,,,
,,,,,,,,,,,,,,,,,,,,,,,,,,,,,,,,,,,,,,,,,,,5d891cd0a592de000185ca5b,5fe192a9eb5270c319c108e6,2020-12-22_07h31.17.015,FlowerSimilarity_Experiment,2020.1.2,Win32,60,5fe17d4a51f3a9c1a60f9869,,,,,,,,,,,,,,,,,,,7,PF,,2,1.602,,,,,,,,,,,,,,,,,,,,,,,,,,,,,,,,,,-118,-68,1,0,0,response5disk,3,204,11,-7,1,0,0,rectangle,11,-7,1,0,0,6,1,"[124,294,130,177,260,152,65,59,314,58,174,199,121,93,51,41,63,134,169,141]",11,-7,1,0,0,0,41,41,81,1,,,,,,,,,,,,,,,,,,,,,,,
,,,,,,,,,,,,,,,,,,,,,,,,,,,,,,,,,,,,,,,,,,,5d891cd0a592de000185ca5b,5fe192a9eb5270c319c108e6,2020-12-22_07h31.17.015,FlowerSimilarity_Experiment,2020.1.2,Win32,60,5fe17d4a51f3a9c1a60f9869,,,,,,,,,,,,,,,,,,,1,FF,,7,1.523,,,,,,,,,,,,,,,,,,,,,,,,,,,,,,,,,,55,119,1,0,0,response1disk,2,205,-10,8,1,0,0,rectangle,-10,8,1,0,0,6,1,"[124,294,130,177,260,152,65,59,314,58,174,199,121,93,51,41,63,134,169,141]",-10,8,1,0,0,0,42,42,2,1,,,,,,,,,,,,,,,,,,,,,,,
,,,,,,,,,,,,,,,,,,,,,,,,,,,,,,,,,,,,,,,,,,,5d891cd0a592de000185ca5b,5fe192a9eb5270c319c108e6,2020-12-22_07h31.17.015,FlowerSimilarity_Experiment,2020.1.2,Win32,60,5fe17d4a51f3a9c1a60f9869,,,,,,,,,,,,,,,,,,,9,PF,,7,0.993,,,,,,,,,,,,,,,,,,,,,,,,,,,,,,,,,,31,105,1,0,0,response1disk,4,206,0,7,1,0,0,rectangle,0,7,1,0,0,6,2,"[124,294,130,177,260,152,65,59,314,58,174,199,121,93,51,41,63,134,169,141]",0,7,1,0,0,0,43,43,114,1,,,,,,,,,,,,,,,,,,,,,,,
