key_resp.keys,key_resp.rt,key_resp_16.keys,key_resp_16.rt,key_resp_2.keys,key_resp_2.rt,X Scale,ratio_pxpermm,screen_size_x,screen_size_y,testsize,key_resp_3.keys,key_resp_3.rt,key_resp_4.keys,key_resp_4.rt,line_size,key_resp_5.keys,key_resp_5.rt,key_resp_6.keys,key_resp_6.rt,key_resp_8.keys,key_resp_8.rt,key_resp_7.keys,key_resp_7.rt,key_resp_12.keys,key_resp_12.rt,key_resp_11.keys,key_resp_11.rt,key_resp_18.keys,key_resp_18.rt,key_resp_21.keys,key_resp_21.rt,key_resp_13.keys,key_resp_13.rt,key_resp_19.keys,key_resp_19.rt,ballposx,viewer_distance,trials.thisRepN,trials.thisTrialN,trials.thisN,trials.thisIndex,trials.ran,participant,session,date,expName,psychopyVersion,OS,frameRate,study_id,viewerdistancecm,DVA_to_distance,radius_F,radius_P,r_F,R_P,key_resp_20.keys,key_resp_20.rt,key_resp_14.keys,key_resp_14.rt,key_resp_15.keys,key_resp_15.rt,key_resp_17.keys,key_resp_17.rt,key_resp_9.keys,key_resp_9.rt,key_resp_10.keys,key_resp_10.rt,Flower1,Ecc,Flower_2,similarity,response_time,mouse_5.x,mouse_5.y,mouse_5.leftButton,mouse_5.midButton,mouse_5.rightButton,mouse_5.clicked_name,mouse_10.x,mouse_10.y,mouse_10.leftButton,mouse_10.midButton,mouse_10.rightButton,mouse_10.clicked_name,mouse_7.x,mouse_7.y,mouse_7.leftButton,mouse_7.midButton,mouse_7.rightButton,catchnumberprac,mouse_6.x,mouse_6.y,mouse_6.leftButton,mouse_6.midButton,mouse_6.rightButton,duringprac.thisRepN,duringprac.thisTrialN,duringprac.thisN,duringprac.thisIndex,duringprac.ran,mouse_7.clicked_name,catchprac,mouse_6.clicked_name,key_resp_22.keys,key_resp_22.rt,mouse.x,mouse.y,mouse.leftButton,mouse.midButton,mouse.rightButton,mouse.clicked_name,Flower2,trialnumber,mouse_2.x,mouse_2.y,mouse_2.leftButton,mouse_2.midButton,mouse_2.rightButton,mouse_2.clicked_name,mouse_3.x,mouse_3.y,mouse_3.leftButton,mouse_3.midButton,mouse_3.rightButton,catchresponse,catchnumber,catchtrialorder,mouse_11.x,mouse_11.y,mouse_11.leftButton,mouse_11.midButton,mouse_11.rightButton,trials_2.thisRepN,trials_2.thisTrialN,trials_2.thisN,trials_2.thisIndex,trials_2.ran,mouse_3.clicked_name,mouse_11.clicked_name,trials_3.thisRepN,trials_3.thisTrialN,trials_3.thisN,trials_3.thisIndex,trials_3.ran,answer1,rt1,answer2,rt2,answer3,rt3,answer4,rt4,answer5,rt5,answer6,rt6,answer8,rt8,answer7,rt7
space,1.4433,space,64.673245,space,3.61309,61.9,6.19,310.177706,116.3166397,1920,space,26.25046,space,7.137705,123.8,space,6.948305,space,4.682695,space,0.61476,space,2.5158,space,4.209335,space,12.65004,space,15.793065,space,5.02506,space,7.986285,return,6.17514,-351.36,753.2264428,0,0,0,0,1,5e3c601a8134d004b0ed397a,5fe2f7b75474cdf127f4655a,2020-12-23_07h55.00.550,FlowerSimilarity_Experiment,2020.1.2,Win32,60,5fe17d4a51f3a9c1a60f9869,,,,,,,,,,,,,,,,,,,,,,,,,,,,,,,,,,,,,,,,,,,,,,,,,,,,,,,,,,,,,,,,,,,,,,,,,,,,,,,,,,,,,,,,,,,,,,,,,,,,,,,,,,,,,,,
,,,,,,,,,,,,,,,,,,,,,,,,,,,,,,,,,,return,4.541375,-69.12,563.3048526,1,0,1,0,1,5e3c601a8134d004b0ed397a,5fe2f7b75474cdf127f4655a,2020-12-23_07h55.00.550,FlowerSimilarity_Experiment,2020.1.2,Win32,60,5fe17d4a51f3a9c1a60f9869,,,,,,,,,,,,,,,,,,,,,,,,,,,,,,,,,,,,,,,,,,,,,,,,,,,,,,,,,,,,,,,,,,,,,,,,,,,,,,,,,,,,,,,,,,,,,,,,,,,,,,,,,,,,,,,
,,,,,,,,,,,,,,,,,,,,,,,,,,,,,,,,,,return,4.560405,-72,565.242828,2,0,2,0,1,5e3c601a8134d004b0ed397a,5fe2f7b75474cdf127f4655a,2020-12-23_07h55.00.550,FlowerSimilarity_Experiment,2020.1.2,Win32,60,5fe17d4a51f3a9c1a60f9869,,,,,,,,,,,,,,,,,,,,,,,,,,,,,,,,,,,,,,,,,,,,,,,,,,,,,,,,,,,,,,,,,,,,,,,,,,,,,,,,,,,,,,,,,,,,,,,,,,,,,,,,,,,,,,,
,,,,,,,,,,,,,,,,,,,,,,,,,,,,,,,,,,return,4.15993,-2.88,518.7314182,3,0,3,0,1,5e3c601a8134d004b0ed397a,5fe2f7b75474cdf127f4655a,2020-12-23_07h55.00.550,FlowerSimilarity_Experiment,2020.1.2,Win32,60,5fe17d4a51f3a9c1a60f9869,,,,,,,,,,,,,,,,,,,,,,,,,,,,,,,,,,,,,,,,,,,,,,,,,,,,,,,,,,,,,,,,,,,,,,,,,,,,,,,,,,,,,,,,,,,,,,,,,,,,,,,,,,,,,,,
,,,,,,,,,,,,,,,,,,,,,,,,,,,,,,,,,,return,3.945795,34.56,493.5377378,4,0,4,0,1,5e3c601a8134d004b0ed397a,5fe2f7b75474cdf127f4655a,2020-12-23_07h55.00.550,FlowerSimilarity_Experiment,2020.1.2,Win32,60,5fe17d4a51f3a9c1a60f9869,,,,,,,,,,,,,,,,,,,,,,,,,,,,,,,,,,,,,,,,,,,,,,,,,,,,,,,,,,,,,,,,,,,,,,,,,,,,,,,,,,,,,,,,,,,,,,,,,,,,,,,,,,,,,,,
,,,,,,,,,,,,,,,,,,,,,,,,,,,,,,,,,,,,,,,,,,,5e3c601a8134d004b0ed397a,5fe2f7b75474cdf127f4655a,2020-12-23_07h55.00.550,FlowerSimilarity_Experiment,2020.1.2,Win32,60,5fe17d4a51f3a9c1a60f9869,58,10.12393404,94.00072754,626.6715169,62.66715169,282.0021826,space,3.094105,space,9.749965,space,18.71459,space,2.99607,space,0.993005,space,4.75534,7,PF,4,2,9.46186,-84.99993896,-47,1,0,0,response5disk_5,12,-2,1,0,0,rectangle_8,12,-2,1,0,0,3,12,-2,1,0,0,0,0,0,6,1,,,,,,,,,,,,,,,,,,,,,,,,,,,,,,,,,,,,,,,,,,,,,,,,,,,,,,,,,,,,
,,,,,,,,,,,,,,,,,,,,,,,,,,,,,,,,,,,,,,,,,,,5e3c601a8134d004b0ed397a,5fe2f7b75474cdf127f4655a,2020-12-23_07h55.00.550,FlowerSimilarity_Experiment,2020.1.2,Win32,60,5fe17d4a51f3a9c1a60f9869,,,,,,,,,,,,,,,,,,,1,FF,5,7,7.361525,42,94,1,0,0,response1disk_5,-6,8,1,0,0,rectangle_8,-6,8,1,0,0,3,-6,8,1,0,0,0,1,1,3,1,,,,,,,,,,,,,,,,,,,,,,,,,,,,,,,,,,,,,,,,,,,,,,,,,,,,,,,,,,,,
,,,,,,,,,,,,,,,,,,,,,,,,,,,,,,,,,,,,,,,,,,,5e3c601a8134d004b0ed397a,5fe2f7b75474cdf127f4655a,2020-12-23_07h55.00.550,FlowerSimilarity_Experiment,2020.1.2,Win32,60,5fe17d4a51f3a9c1a60f9869,,,,,,,,,,,,,,,,,,,4,FF,6,7,3.99998,50.00006104,91,1,0,0,response1disk_5,4,-10,1,0,0,rectangle_8,4,-10,1,0,0,3,4,-10,1,0,0,0,2,2,5,1,,,,,,,,,,,,,,,,,,,,,,,,,,,,,,,,,,,,,,,,,,,,,,,,,,,,,,,,,,,,
,,,,,,,,,,,,,,,,,,,,,,,,,,,,,,,,,,,,,,,,,,,5e3c601a8134d004b0ed397a,5fe2f7b75474cdf127f4655a,2020-12-23_07h55.00.550,FlowerSimilarity_Experiment,2020.1.2,Win32,60,5fe17d4a51f3a9c1a60f9869,,,,,,,,,,,,,,,,,,,2,PF,1,7,2.838175,40,78,1,0,0,response1disk_5,-27,-4,1,0,0,rectangle_8,-27,-4,1,0,0,3,-27,-4,1,0,0,0,3,3,1,1,,,,,,,,,,,,,,,,,,,,,,,,,,,,,,,,,,,,,,,,,,,,,,,,,,,,,,,,,,,,
,,,,,,,,,,,,,,,,,,,,,,,,,,,,,,,,,,,,,,,,,,,5e3c601a8134d004b0ed397a,5fe2f7b75474cdf127f4655a,2020-12-23_07h55.00.550,FlowerSimilarity_Experiment,2020.1.2,Win32,60,5fe17d4a51f3a9c1a60f9869,,,,,,,,,,,,,,,,,,,1,FF,9,2,3.35381,-81.99993896,-41,1,0,0,response5disk_5,2.000061035,-6,1,0,0,rectangle_8,-38,-79,1,0,0,3,7,6,1,0,0,0,4,4,0,1,response5disk_7,3,rectangle_4,,,,,,,,,,,,,,,,,,,,,,,,,,,,,,,,,,,,,,,,,,,,,,,,,,,,,,,,,
,,,,,,,,,,,,,,,,,,,,,,,,,,,,,,,,,,,,,,,,,,,5e3c601a8134d004b0ed397a,5fe2f7b75474cdf127f4655a,2020-12-23_07h55.00.550,FlowerSimilarity_Experiment,2020.1.2,Win32,60,5fe17d4a51f3a9c1a60f9869,,,,,,,,,,,,,,,,,,,6,PF,8,6,2.377025,96,34.99996948,1,0,0,response1disk_5,21,-2,1,0,0,rectangle_8,21,-2,1,0,0,3,21,-2,1,0,0,0,5,5,4,1,,,,,,,,,,,,,,,,,,,,,,,,,,,,,,,,,,,,,,,,,,,,,,,,,,,,,,,,,,,,
,,,,,,,,,,,,,,,,,,,,,,,,,,,,,,,,,,,,,,,,,,,5e3c601a8134d004b0ed397a,5fe2f7b75474cdf127f4655a,2020-12-23_07h55.00.550,FlowerSimilarity_Experiment,2020.1.2,Win32,60,5fe17d4a51f3a9c1a60f9869,,,,,,,,,,,,,,,,,,,7,PF,1,6,2.24944,60,43.99996948,1,0,0,response1disk_5,10,2,1,0,0,rectangle_8,10,2,1,0,0,3,10,2,1,0,0,0,6,6,2,1,,,,,,,,,,,,,,,,,,,,,,,,,,,,,,,,,,,,,,,,,,,,,,,,,,,,,,,,,,,,
,,,,,,,,,,,,,,,,,,,,,,,,,,,,,,,,,,,,,,,,,,,5e3c601a8134d004b0ed397a,5fe2f7b75474cdf127f4655a,2020-12-23_07h55.00.550,FlowerSimilarity_Experiment,2020.1.2,Win32,60,5fe17d4a51f3a9c1a60f9869,,,,,,,,,,,,,,,,,,,7,PF,,0,3.11556,,,,,,,,,,,,,,,,,,,,,,,,,,,,,,,,space,1.97164,-57.99993896,106,1,0,0,response7disk,3,1,-21,11,1,0,0,rectangle,-21,11,1,0,0,,5,"[291,4,69,5,178,320,24,125,294,68,70,98,141,16,252,21,231,300,63,243]",-21,11,1,0,0,0,0,0,81,1,,,,,,,,,,,,,,,,,,,,,,,
,,,,,,,,,,,,,,,,,,,,,,,,,,,,,,,,,,,,,,,,,,,5e3c601a8134d004b0ed397a,5fe2f7b75474cdf127f4655a,2020-12-23_07h55.00.550,FlowerSimilarity_Experiment,2020.1.2,Win32,60,5fe17d4a51f3a9c1a60f9869,,,,,,,,,,,,,,,,,,,3,PF,,0,1.283185,,,,,,,,,,,,,,,,,,,,,,,,,,,,,,,,,,-42.99993896,73,1,0,0,response7disk,7,2,0,5,1,0,0,rectangle,0,5,1,0,0,,6,"[291,4,69,5,178,320,24,125,294,68,70,98,141,16,252,21,231,300,63,243]",0,5,1,0,0,0,1,1,41,1,,,,,,,,,,,,,,,,,,,,,,,
,,,,,,,,,,,,,,,,,,,,,,,,,,,,,,,,,,,,,,,,,,,5e3c601a8134d004b0ed397a,5fe2f7b75474cdf127f4655a,2020-12-23_07h55.00.550,FlowerSimilarity_Experiment,2020.1.2,Win32,60,5fe17d4a51f3a9c1a60f9869,,,,,,,,,,,,,,,,,,,5,FF,,2,3.468425,,,,,,,,,,,,,,,,,,,,,,,,,,,,,,,,,,-78.99993896,-23,1,0,0,response5disk,9,3,-21.99993896,-3,1,0,0,rectangle,-21.99993896,-3,1,0,0,,1,"[291,4,69,5,178,320,24,125,294,68,70,98,141,16,252,21,231,300,63,243]",-21.99993896,-3,1,0,0,0,2,2,61,1,,,,,,,,,,,,,,,,,,,,,,,
,,,,,,,,,,,,,,,,,,,,,,,,,,,,,,,,,,,,,,,,,,,5e3c601a8134d004b0ed397a,5fe2f7b75474cdf127f4655a,2020-12-23_07h55.00.550,FlowerSimilarity_Experiment,2020.1.2,Win32,60,5fe17d4a51f3a9c1a60f9869,,,,,,,,,,,,,,,,,,,8,PF,,7,2.30331,,,,,,,,,,,,,,,,,,,,,,,,,,,,,,,,,,37,94.99996948,1,0,0,response1disk,6,4,9,14,1,0,0,rectangle,-81.99993896,49.99996948,1,0,0,1,1,"[291,4,69,5,178,320,24,125,294,68,70,98,141,16,252,21,231,300,63,243]",-24,17,1,0,0,0,3,3,161,1,response7disk_3,rectangle,,,,,,,,,,,,,,,,,,,,,
,,,,,,,,,,,,,,,,,,,,,,,,,,,,,,,,,,,,,,,,,,,5e3c601a8134d004b0ed397a,5fe2f7b75474cdf127f4655a,2020-12-23_07h55.00.550,FlowerSimilarity_Experiment,2020.1.2,Win32,60,5fe17d4a51f3a9c1a60f9869,,,,,,,,,,,,,,,,,,,4,PF,,7,2.415965,,,,,,,,,,,,,,,,,,,,,,,,,,,,,,,,,,63,85,1,0,0,response1disk,7,5,3,0,1,0,0,rectangle,-29,94.99996948,1,0,0,0,0,"[291,4,69,5,178,320,24,125,294,68,70,98,141,16,252,21,231,300,63,243]",10,14,1,0,0,0,4,4,38,1,response7disk_3,rectangle,,,,,,,,,,,,,,,,,,,,,
,,,,,,,,,,,,,,,,,,,,,,,,,,,,,,,,,,,,,,,,,,,5e3c601a8134d004b0ed397a,5fe2f7b75474cdf127f4655a,2020-12-23_07h55.00.550,FlowerSimilarity_Experiment,2020.1.2,Win32,60,5fe17d4a51f3a9c1a60f9869,,,,,,,,,,,,,,,,,,,7,PF,,6,2.73028,,,,,,,,,,,,,,,,,,,,,,,,,,,,,,,,,,93,66,1,0,0,response1disk,6,6,9,1,1,0,0,rectangle,9,1,1,0,0,0,0,"[291,4,69,5,178,320,24,125,294,68,70,98,141,16,252,21,231,300,63,243]",9,1,1,0,0,0,5,5,29,1,,,,,,,,,,,,,,,,,,,,,,,
,,,,,,,,,,,,,,,,,,,,,,,,,,,,,,,,,,,,,,,,,,,5e3c601a8134d004b0ed397a,5fe2f7b75474cdf127f4655a,2020-12-23_07h55.00.550,FlowerSimilarity_Experiment,2020.1.2,Win32,60,5fe17d4a51f3a9c1a60f9869,,,,,,,,,,,,,,,,,,,7,PF,,7,2.3584,,,,,,,,,,,,,,,,,,,,,,,,,,,,,,,,,,37,87,1,0,0,response1disk,8,7,21,-5,1,0,0,rectangle,21,-5,1,0,0,0,0,"[291,4,69,5,178,320,24,125,294,68,70,98,141,16,252,21,231,300,63,243]",21,-5,1,0,0,0,6,6,140,1,,,,,,,,,,,,,,,,,,,,,,,
,,,,,,,,,,,,,,,,,,,,,,,,,,,,,,,,,,,,,,,,,,,5e3c601a8134d004b0ed397a,5fe2f7b75474cdf127f4655a,2020-12-23_07h55.00.550,FlowerSimilarity_Experiment,2020.1.2,Win32,60,5fe17d4a51f3a9c1a60f9869,,,,,,,,,,,,,,,,,,,9,PF,,5,2.370305,,,,,,,,,,,,,,,,,,,,,,,,,,,,,,,,,,85,-32,1,0,0,response3disk,6,8,-9.999938965,8,1,0,0,rectangle,-9.999938965,8,1,0,0,0,0,"[291,4,69,5,178,320,24,125,294,68,70,98,141,16,252,21,231,300,63,243]",-9.999938965,8,1,0,0,0,7,7,148,1,,,,,,,,,,,,,,,,,,,,,,,
,,,,,,,,,,,,,,,,,,,,,,,,,,,,,,,,,,,,,,,,,,,5e3c601a8134d004b0ed397a,5fe2f7b75474cdf127f4655a,2020-12-23_07h55.00.550,FlowerSimilarity_Experiment,2020.1.2,Win32,60,5fe17d4a51f3a9c1a60f9869,,,,,,,,,,,,,,,,,,,3,PF,,5,1.49777,,,,,,,,,,,,,,,,,,,,,,,,,,,,,,,,,,86,-40,1,0,0,response3disk,1,9,13,-6,1,0,0,rectangle,13,-6,1,0,0,0,2,"[291,4,69,5,178,320,24,125,294,68,70,98,141,16,252,21,231,300,63,243]",13,-6,1,0,0,0,8,8,96,1,,,,,,,,,,,,,,,,,,,,,,,
,,,,,,,,,,,,,,,,,,,,,,,,,,,,,,,,,,,,,,,,,,,5e3c601a8134d004b0ed397a,5fe2f7b75474cdf127f4655a,2020-12-23_07h55.00.550,FlowerSimilarity_Experiment,2020.1.2,Win32,60,5fe17d4a51f3a9c1a60f9869,,,,,,,,,,,,,,,,,,,5,PF,,7,2.32667,,,,,,,,,,,,,,,,,,,,,,,,,,,,,,,,,,55,91,1,0,0,response1disk,8,10,-9,-3,1,0,0,rectangle,-9,-3,1,0,0,0,2,"[291,4,69,5,178,320,24,125,294,68,70,98,141,16,252,21,231,300,63,243]",-9,-3,1,0,0,0,9,9,149,1,,,,,,,,,,,,,,,,,,,,,,,
,,,,,,,,,,,,,,,,,,,,,,,,,,,,,,,,,,,,,,,,,,,5e3c601a8134d004b0ed397a,5fe2f7b75474cdf127f4655a,2020-12-23_07h55.00.550,FlowerSimilarity_Experiment,2020.1.2,Win32,60,5fe17d4a51f3a9c1a60f9869,,,,,,,,,,,,,,,,,,,1,FF,,5,3.74585,,,,,,,,,,,,,,,,,,,,,,,,,,,,,,,,,,78,-59,1,0,0,response3disk,3,11,-23,-10,1,0,0,rectangle,-23,-10,1,0,0,0,2,"[291,4,69,5,178,320,24,125,294,68,70,98,141,16,252,21,231,300,63,243]",-23,-10,1,0,0,0,10,10,99,1,,,,,,,,,,,,,,,,,,,,,,,
,,,,,,,,,,,,,,,,,,,,,,,,,,,,,,,,,,,,,,,,,,,5e3c601a8134d004b0ed397a,5fe2f7b75474cdf127f4655a,2020-12-23_07h55.00.550,FlowerSimilarity_Experiment,2020.1.2,Win32,60,5fe17d4a51f3a9c1a60f9869,,,,,,,,,,,,,,,,,,,5,PF,,5,3.83416,,,,,,,,,,,,,,,,,,,,,,,,,,,,,,,,,,73,-50,1,0,0,response3disk,9,12,2.000061035,1,1,0,0,rectangle,2.000061035,1,1,0,0,0,7,"[291,4,69,5,178,320,24,125,294,68,70,98,141,16,252,21,231,300,63,243]",2.000061035,1,1,0,0,0,11,11,136,1,,,,,,,,,,,,,,,,,,,,,,,
,,,,,,,,,,,,,,,,,,,,,,,,,,,,,,,,,,,,,,,,,,,5e3c601a8134d004b0ed397a,5fe2f7b75474cdf127f4655a,2020-12-23_07h55.00.550,FlowerSimilarity_Experiment,2020.1.2,Win32,60,5fe17d4a51f3a9c1a60f9869,,,,,,,,,,,,,,,,,,,2,PF,,6,2.1047,,,,,,,,,,,,,,,,,,,,,,,,,,,,,,,,,,88,52,1,0,0,response1disk,7,13,7,11,1,0,0,rectangle,7,11,1,0,0,0,7,"[291,4,69,5,178,320,24,125,294,68,70,98,141,16,252,21,231,300,63,243]",7,11,1,0,0,0,12,12,107,1,,,,,,,,,,,,,,,,,,,,,,,
,,,,,,,,,,,,,,,,,,,,,,,,,,,,,,,,,,,,,,,,,,,5e3c601a8134d004b0ed397a,5fe2f7b75474cdf127f4655a,2020-12-23_07h55.00.550,FlowerSimilarity_Experiment,2020.1.2,Win32,60,5fe17d4a51f3a9c1a60f9869,,,,,,,,,,,,,,,,,,,2,PF,,0,1.87758,,,,,,,,,,,,,,,,,,,,,,,,,,,,,,,,,,-32,97.99996948,1,0,0,response7disk,2,14,15,0,1,0,0,rectangle,15,0,1,0,0,0,5,"[291,4,69,5,178,320,24,125,294,68,70,98,141,16,252,21,231,300,63,243]",15,0,1,0,0,0,13,13,14,1,,,,,,,,,,,,,,,,,,,,,,,
,,,,,,,,,,,,,,,,,,,,,,,,,,,,,,,,,,,,,,,,,,,5e3c601a8134d004b0ed397a,5fe2f7b75474cdf127f4655a,2020-12-23_07h55.00.550,FlowerSimilarity_Experiment,2020.1.2,Win32,60,5fe17d4a51f3a9c1a60f9869,,,,,,,,,,,,,,,,,,,6,FF,,7,5.39888,,,,,,,,,,,,,,,,,,,,,,,,,,,,,,,,,,37,99,1,0,0,response1disk,8,15,-6,-14,1,0,0,rectangle,-6,-14,1,0,0,0,3,"[291,4,69,5,178,320,24,125,294,68,70,98,141,16,252,21,231,300,63,243]",-6,-14,1,0,0,0,14,14,133,1,,,,,,,,,,,,,,,,,,,,,,,
,,,,,,,,,,,,,,,,,,,,,,,,,,,,,,,,,,,,,,,,,,,5e3c601a8134d004b0ed397a,5fe2f7b75474cdf127f4655a,2020-12-23_07h55.00.550,FlowerSimilarity_Experiment,2020.1.2,Win32,60,5fe17d4a51f3a9c1a60f9869,,,,,,,,,,,,,,,,,,,6,FF,,4,2.03235,,,,,,,,,,,,,,,,,,,,,,,,,,,,,,,,,,47.00006104,-89,1,0,0,response3disk,9,16,13,-5,1,0,0,rectangle,-108,-55,1,0,0,0,2,"[291,4,69,5,178,320,24,125,294,68,70,98,141,16,252,21,231,300,63,243]",-27.99993896,-8,1,0,0,0,15,15,160,1,response5disk_3,rectangle,,,,,,,,,,,,,,,,,,,,,
,,,,,,,,,,,,,,,,,,,,,,,,,,,,,,,,,,,,,,,,,,,5e3c601a8134d004b0ed397a,5fe2f7b75474cdf127f4655a,2020-12-23_07h55.00.550,FlowerSimilarity_Experiment,2020.1.2,Win32,60,5fe17d4a51f3a9c1a60f9869,,,,,,,,,,,,,,,,,,,7,PF,,7,2.6812,,,,,,,,,,,,,,,,,,,,,,,,,,,,,,,,,,45,100,1,0,0,response1disk,5,17,10,12,1,0,0,rectangle,10,12,1,0,0,0,7,"[291,4,69,5,178,320,24,125,294,68,70,98,141,16,252,21,231,300,63,243]",10,12,1,0,0,0,16,16,92,1,,,,,,,,,,,,,,,,,,,,,,,
,,,,,,,,,,,,,,,,,,,,,,,,,,,,,,,,,,,,,,,,,,,5e3c601a8134d004b0ed397a,5fe2f7b75474cdf127f4655a,2020-12-23_07h55.00.550,FlowerSimilarity_Experiment,2020.1.2,Win32,60,5fe17d4a51f3a9c1a60f9869,,,,,,,,,,,,,,,,,,,6,PF,,7,1.86321,,,,,,,,,,,,,,,,,,,,,,,,,,,,,,,,,,27,70,1,0,0,response1disk,7,18,-3,0,1,0,0,rectangle,-3,0,1,0,0,0,6,"[291,4,69,5,178,320,24,125,294,68,70,98,141,16,252,21,231,300,63,243]",-3,0,1,0,0,0,17,17,50,1,,,,,,,,,,,,,,,,,,,,,,,
,,,,,,,,,,,,,,,,,,,,,,,,,,,,,,,,,,,,,,,,,,,5e3c601a8134d004b0ed397a,5fe2f7b75474cdf127f4655a,2020-12-23_07h55.00.550,FlowerSimilarity_Experiment,2020.1.2,Win32,60,5fe17d4a51f3a9c1a60f9869,,,,,,,,,,,,,,,,,,,2,PF,,7,1.485565,,,,,,,,,,,,,,,,,,,,,,,,,,,,,,,,,,22,49,1,0,0,response1disk,8,19,-5,-18,1,0,0,rectangle,-5,-18,1,0,0,0,0,"[291,4,69,5,178,320,24,125,294,68,70,98,141,16,252,21,231,300,63,243]",-5,-18,1,0,0,0,18,18,52,1,,,,,,,,,,,,,,,,,,,,,,,
,,,,,,,,,,,,,,,,,,,,,,,,,,,,,,,,,,,,,,,,,,,5e3c601a8134d004b0ed397a,5fe2f7b75474cdf127f4655a,2020-12-23_07h55.00.550,FlowerSimilarity_Experiment,2020.1.2,Win32,60,5fe17d4a51f3a9c1a60f9869,,,,,,,,,,,,,,,,,,,7,FF,,6,2.62426,,,,,,,,,,,,,,,,,,,,,,,,,,,,,,,,,,91,45,1,0,0,response1disk,4,20,-3,5,1,0,0,rectangle,-3,5,1,0,0,0,6,"[291,4,69,5,178,320,24,125,294,68,70,98,141,16,252,21,231,300,63,243]",-3,5,1,0,0,0,19,19,158,1,,,,,,,,,,,,,,,,,,,,,,,
,,,,,,,,,,,,,,,,,,,,,,,,,,,,,,,,,,,,,,,,,,,5e3c601a8134d004b0ed397a,5fe2f7b75474cdf127f4655a,2020-12-23_07h55.00.550,FlowerSimilarity_Experiment,2020.1.2,Win32,60,5fe17d4a51f3a9c1a60f9869,,,,,,,,,,,,,,,,,,,1,PF,,7,2.89696,,,,,,,,,,,,,,,,,,,,,,,,,,,,,,,,,,38.00006104,100,1,0,0,response1disk,7,21,18,9,1,0,0,rectangle,-71,-47,1,0,0,0,2,"[291,4,69,5,178,320,24,125,294,68,70,98,141,16,252,21,231,300,63,243]",11.00006104,2,1,0,0,0,20,20,150,1,response5disk_3,rectangle,,,,,,,,,,,,,,,,,,,,,
,,,,,,,,,,,,,,,,,,,,,,,,,,,,,,,,,,,,,,,,,,,5e3c601a8134d004b0ed397a,5fe2f7b75474cdf127f4655a,2020-12-23_07h55.00.550,FlowerSimilarity_Experiment,2020.1.2,Win32,60,5fe17d4a51f3a9c1a60f9869,,,,,,,,,,,,,,,,,,,3,FF,,7,2.14294,,,,,,,,,,,,,,,,,,,,,,,,,,,,,,,,,,59.00006104,90,1,0,0,response1disk,8,22,1,8,1,0,0,rectangle,1,8,1,0,0,0,7,"[291,4,69,5,178,320,24,125,294,68,70,98,141,16,252,21,231,300,63,243]",1,8,1,0,0,0,21,21,44,1,,,,,,,,,,,,,,,,,,,,,,,
,,,,,,,,,,,,,,,,,,,,,,,,,,,,,,,,,,,,,,,,,,,5e3c601a8134d004b0ed397a,5fe2f7b75474cdf127f4655a,2020-12-23_07h55.00.550,FlowerSimilarity_Experiment,2020.1.2,Win32,60,5fe17d4a51f3a9c1a60f9869,,,,,,,,,,,,,,,,,,,3,PF,,5,1.756245,,,,,,,,,,,,,,,,,,,,,,,,,,,,,,,,,,91,-48,1,0,0,response3disk,8,23,-15.99993896,11,1,0,0,rectangle,-15.99993896,11,1,0,0,0,6,"[291,4,69,5,178,320,24,125,294,68,70,98,141,16,252,21,231,300,63,243]",-15.99993896,11,1,0,0,0,22,22,3,1,,,,,,,,,,,,,,,,,,,,,,,
,,,,,,,,,,,,,,,,,,,,,,,,,,,,,,,,,,,,,,,,,,,5e3c601a8134d004b0ed397a,5fe2f7b75474cdf127f4655a,2020-12-23_07h55.00.550,FlowerSimilarity_Experiment,2020.1.2,Win32,60,5fe17d4a51f3a9c1a60f9869,,,,,,,,,,,,,,,,,,,2,PF,,7,2.189,,,,,,,,,,,,,,,,,,,,,,,,,,,,,,,,,,66,84,1,0,0,response1disk,1,24,-9.999938965,11,1,0,0,rectangle,-81.99993896,45,1,0,0,1,1,"[291,4,69,5,178,320,24,125,294,68,70,98,141,16,252,21,231,300,63,243]",23.00006104,9,1,0,0,0,23,23,9,1,response7disk_3,rectangle,,,,,,,,,,,,,,,,,,,,,
,,,,,,,,,,,,,,,,,,,,,,,,,,,,,,,,,,,,,,,,,,,5e3c601a8134d004b0ed397a,5fe2f7b75474cdf127f4655a,2020-12-23_07h55.00.550,FlowerSimilarity_Experiment,2020.1.2,Win32,60,5fe17d4a51f3a9c1a60f9869,,,,,,,,,,,,,,,,,,,3,PF,,7,1.623515,,,,,,,,,,,,,,,,,,,,,,,,,,,,,,,,,,39,94,1,0,0,response1disk,6,25,-8,5,1,0,0,rectangle,-8,5,1,0,0,1,7,"[291,4,69,5,178,320,24,125,294,68,70,98,141,16,252,21,231,300,63,243]",-8,5,1,0,0,0,24,24,47,1,,,,,,,,,,,,,,,,,,,,,,,
,,,,,,,,,,,,,,,,,,,,,,,,,,,,,,,,,,,,,,,,,,,5e3c601a8134d004b0ed397a,5fe2f7b75474cdf127f4655a,2020-12-23_07h55.00.550,FlowerSimilarity_Experiment,2020.1.2,Win32,60,5fe17d4a51f3a9c1a60f9869,,,,,,,,,,,,,,,,,,,4,PF,,5,2.222635,,,,,,,,,,,,,,,,,,,,,,,,,,,,,,,,,,92,-39,1,0,0,response3disk,9,26,-9.999938965,6,1,0,0,rectangle,-9.999938965,6,1,0,0,1,7,"[291,4,69,5,178,320,24,125,294,68,70,98,141,16,252,21,231,300,63,243]",-9.999938965,6,1,0,0,0,25,25,75,1,,,,,,,,,,,,,,,,,,,,,,,
,,,,,,,,,,,,,,,,,,,,,,,,,,,,,,,,,,,,,,,,,,,5e3c601a8134d004b0ed397a,5fe2f7b75474cdf127f4655a,2020-12-23_07h55.00.550,FlowerSimilarity_Experiment,2020.1.2,Win32,60,5fe17d4a51f3a9c1a60f9869,,,,,,,,,,,,,,,,,,,2,PF,,7,1.30816,,,,,,,,,,,,,,,,,,,,,,,,,,,,,,,,,,54,106.9999695,1,0,0,response1disk,6,27,16,14,1,0,0,rectangle,16,14,1,0,0,6,0,"[291,4,69,5,178,320,24,125,294,68,70,98,141,16,252,21,231,300,63,243]",16,14,1,0,0,0,26,26,113,1,,,,,,,,,,,,,,,,,,,,,,,
,,,,,,,,,,,,,,,,,,,,,,,,,,,,,,,,,,,,,,,,,,,5e3c601a8134d004b0ed397a,5fe2f7b75474cdf127f4655a,2020-12-23_07h55.00.550,FlowerSimilarity_Experiment,2020.1.2,Win32,60,5fe17d4a51f3a9c1a60f9869,,,,,,,,,,,,,,,,,,,8,PF,,5,3.801165,,,,,,,,,,,,,,,,,,,,,,,,,,,,,,,,,,70,-50,1,0,0,response3disk,9,28,-5,-3,1,0,0,rectangle,-5,-3,1,0,0,6,7,"[291,4,69,5,178,320,24,125,294,68,70,98,141,16,252,21,231,300,63,243]",-5,-3,1,0,0,0,27,27,42,1,,,,,,,,,,,,,,,,,,,,,,,
,,,,,,,,,,,,,,,,,,,,,,,,,,,,,,,,,,,,,,,,,,,5e3c601a8134d004b0ed397a,5fe2f7b75474cdf127f4655a,2020-12-23_07h55.00.550,FlowerSimilarity_Experiment,2020.1.2,Win32,60,5fe17d4a51f3a9c1a60f9869,,,,,,,,,,,,,,,,,,,1,PF,,1,2.04561,,,,,,,,,,,,,,,,,,,,,,,,,,,,,,,,,,-78,49.99996948,1,0,0,response7disk,9,29,-15.99993896,-4,1,0,0,rectangle,-15.99993896,-4,1,0,0,6,3,"[291,4,69,5,178,320,24,125,294,68,70,98,141,16,252,21,231,300,63,243]",-15.99993896,-4,1,0,0,0,28,28,15,1,,,,,,,,,,,,,,,,,,,,,,,
,,,,,,,,,,,,,,,,,,,,,,,,,,,,,,,,,,,,,,,,,,,5e3c601a8134d004b0ed397a,5fe2f7b75474cdf127f4655a,2020-12-23_07h55.00.550,FlowerSimilarity_Experiment,2020.1.2,Win32,60,5fe17d4a51f3a9c1a60f9869,,,,,,,,,,,,,,,,,,,4,FF,,3,2.231475,,,,,,,,,,,,,,,,,,,,,,,,,,,,,,,,,,-60.99993896,-78,1,0,0,response5disk,5,30,-11,-8,1,0,0,rectangle,-11,-8,1,0,0,6,1,"[291,4,69,5,178,320,24,125,294,68,70,98,141,16,252,21,231,300,63,243]",-11,-8,1,0,0,0,29,29,116,1,,,,,,,,,,,,,,,,,,,,,,,
,,,,,,,,,,,,,,,,,,,,,,,,,,,,,,,,,,,,,,,,,,,5e3c601a8134d004b0ed397a,5fe2f7b75474cdf127f4655a,2020-12-23_07h55.00.550,FlowerSimilarity_Experiment,2020.1.2,Win32,60,5fe17d4a51f3a9c1a60f9869,,,,,,,,,,,,,,,,,,,8,PF,,4,2.415545,,,,,,,,,,,,,,,,,,,,,,,,,,,,,,,,,,35.00006104,-75,1,0,0,response3disk,7,31,10,-10,1,0,0,rectangle,10,-10,1,0,0,6,0,"[291,4,69,5,178,320,24,125,294,68,70,98,141,16,252,21,231,300,63,243]",10,-10,1,0,0,0,30,30,23,1,,,,,,,,,,,,,,,,,,,,,,,
,,,,,,,,,,,,,,,,,,,,,,,,,,,,,,,,,,,,,,,,,,,5e3c601a8134d004b0ed397a,5fe2f7b75474cdf127f4655a,2020-12-23_07h55.00.550,FlowerSimilarity_Experiment,2020.1.2,Win32,60,5fe17d4a51f3a9c1a60f9869,,,,,,,,,,,,,,,,,,,4,FF,,0,1.499075,,,,,,,,,,,,,,,,,,,,,,,,,,,,,,,,,,-45.99993896,69,1,0,0,response7disk,4,32,-17,-7,1,0,0,rectangle,-17,-7,1,0,0,6,1,"[291,4,69,5,178,320,24,125,294,68,70,98,141,16,252,21,231,300,63,243]",-17,-7,1,0,0,0,31,31,84,1,,,,,,,,,,,,,,,,,,,,,,,
,,,,,,,,,,,,,,,,,,,,,,,,,,,,,,,,,,,,,,,,,,,5e3c601a8134d004b0ed397a,5fe2f7b75474cdf127f4655a,2020-12-23_07h55.00.550,FlowerSimilarity_Experiment,2020.1.2,Win32,60,5fe17d4a51f3a9c1a60f9869,,,,,,,,,,,,,,,,,,,6,FF,,7,1.83705,,,,,,,,,,,,,,,,,,,,,,,,,,,,,,,,,,47.00006104,103.9999695,1,0,0,response1disk,7,33,5.000061035,-4,1,0,0,rectangle,5.000061035,-4,1,0,0,6,4,"[291,4,69,5,178,320,24,125,294,68,70,98,141,16,252,21,231,300,63,243]",5.000061035,-4,1,0,0,0,32,32,18,1,,,,,,,,,,,,,,,,,,,,,,,
,,,,,,,,,,,,,,,,,,,,,,,,,,,,,,,,,,,,,,,,,,,5e3c601a8134d004b0ed397a,5fe2f7b75474cdf127f4655a,2020-12-23_07h55.00.550,FlowerSimilarity_Experiment,2020.1.2,Win32,60,5fe17d4a51f3a9c1a60f9869,,,,,,,,,,,,,,,,,,,3,FF,,6,1.424645,,,,,,,,,,,,,,,,,,,,,,,,,,,,,,,,,,74,40.99996948,1,0,0,response1disk,1,34,-14,-5,1,0,0,rectangle,-14,-5,1,0,0,6,7,"[291,4,69,5,178,320,24,125,294,68,70,98,141,16,252,21,231,300,63,243]",-14,-5,1,0,0,0,33,33,125,1,,,,,,,,,,,,,,,,,,,,,,,
,,,,,,,,,,,,,,,,,,,,,,,,,,,,,,,,,,,,,,,,,,,5e3c601a8134d004b0ed397a,5fe2f7b75474cdf127f4655a,2020-12-23_07h55.00.550,FlowerSimilarity_Experiment,2020.1.2,Win32,60,5fe17d4a51f3a9c1a60f9869,,,,,,,,,,,,,,,,,,,5,FF,,6,3.088865,,,,,,,,,,,,,,,,,,,,,,,,,,,,,,,,,,88,61.99996948,1,0,0,response1disk,2,35,-39,4,1,0,0,rectangle,-39,4,1,0,0,6,4,"[291,4,69,5,178,320,24,125,294,68,70,98,141,16,252,21,231,300,63,243]",-39,4,1,0,0,0,34,34,55,1,,,,,,,,,,,,,,,,,,,,,,,
,,,,,,,,,,,,,,,,,,,,,,,,,,,,,,,,,,,,,,,,,,,5e3c601a8134d004b0ed397a,5fe2f7b75474cdf127f4655a,2020-12-23_07h55.00.550,FlowerSimilarity_Experiment,2020.1.2,Win32,60,5fe17d4a51f3a9c1a60f9869,,,,,,,,,,,,,,,,,,,3,FF,,3,2.272075,,,,,,,,,,,,,,,,,,,,,,,,,,,,,,,,,,-69,-107,1,0,0,response5disk,4,36,-24,11,1,0,0,rectangle,-24,11,1,0,0,6,4,"[291,4,69,5,178,320,24,125,294,68,70,98,141,16,252,21,231,300,63,243]",-24,11,1,0,0,0,35,35,110,1,,,,,,,,,,,,,,,,,,,,,,,
,,,,,,,,,,,,,,,,,,,,,,,,,,,,,,,,,,,,,,,,,,,5e3c601a8134d004b0ed397a,5fe2f7b75474cdf127f4655a,2020-12-23_07h55.00.550,FlowerSimilarity_Experiment,2020.1.2,Win32,60,5fe17d4a51f3a9c1a60f9869,,,,,,,,,,,,,,,,,,,7,FF,,0,2.953205,,,,,,,,,,,,,,,,,,,,,,,,,,,,,,,,,,-48,88,1,0,0,response7disk,7,37,-15.99993896,-14,1,0,0,rectangle,-15.99993896,-14,1,0,0,6,1,"[291,4,69,5,178,320,24,125,294,68,70,98,141,16,252,21,231,300,63,243]",-15.99993896,-14,1,0,0,0,36,36,34,1,,,,,,,,,,,,,,,,,,,,,,,
,,,,,,,,,,,,,,,,,,,,,,,,,,,,,,,,,,,,,,,,,,,5e3c601a8134d004b0ed397a,5fe2f7b75474cdf127f4655a,2020-12-23_07h55.00.550,FlowerSimilarity_Experiment,2020.1.2,Win32,60,5fe17d4a51f3a9c1a60f9869,,,,,,,,,,,,,,,,,,,1,FF,,6,1.687495,,,,,,,,,,,,,,,,,,,,,,,,,,,,,,,,,,79,72,1,0,0,response1disk,7,38,8.000061035,-10,1,0,0,rectangle,8.000061035,-10,1,0,0,6,0,"[291,4,69,5,178,320,24,125,294,68,70,98,141,16,252,21,231,300,63,243]",8.000061035,-10,1,0,0,0,37,37,137,1,,,,,,,,,,,,,,,,,,,,,,,
,,,,,,,,,,,,,,,,,,,,,,,,,,,,,,,,,,,,,,,,,,,5e3c601a8134d004b0ed397a,5fe2f7b75474cdf127f4655a,2020-12-23_07h55.00.550,FlowerSimilarity_Experiment,2020.1.2,Win32,60,5fe17d4a51f3a9c1a60f9869,,,,,,,,,,,,,,,,,,,7,FF,,6,1.52079,,,,,,,,,,,,,,,,,,,,,,,,,,,,,,,,,,90,64.99996948,1,0,0,response1disk,9,39,-24,3,1,0,0,rectangle,-24,3,1,0,0,6,6,"[291,4,69,5,178,320,24,125,294,68,70,98,141,16,252,21,231,300,63,243]",-24,3,1,0,0,0,38,38,155,1,,,,,,,,,,,,,,,,,,,,,,,
,,,,,,,,,,,,,,,,,,,,,,,,,,,,,,,,,,,,,,,,,,,5e3c601a8134d004b0ed397a,5fe2f7b75474cdf127f4655a,2020-12-23_07h55.00.550,FlowerSimilarity_Experiment,2020.1.2,Win32,60,5fe17d4a51f3a9c1a60f9869,,,,,,,,,,,,,,,,,,,7,FF,,7,1.78755,,,,,,,,,,,,,,,,,,,,,,,,,,,,,,,,,,46,99,1,0,0,response1disk,5,40,-3,19,1,0,0,rectangle,-3,19,1,0,0,6,6,"[291,4,69,5,178,320,24,125,294,68,70,98,141,16,252,21,231,300,63,243]",-3,19,1,0,0,0,39,39,156,1,,,,,,,,,,,,,,,,,,,,,,,
,,,,,,,,,,,,,,,,,,,,,,,,,,,,,,,,,,,,,,,,,,,5e3c601a8134d004b0ed397a,5fe2f7b75474cdf127f4655a,2020-12-23_07h55.00.550,FlowerSimilarity_Experiment,2020.1.2,Win32,60,5fe17d4a51f3a9c1a60f9869,,,,,,,,,,,,,,,,,,,3,PF,,0,1.65869,,,,,,,,,,,,,,,,,,,,,,,,,,,,,,,,,,-42.99993896,88,1,0,0,response7disk,3,41,18,5,1,0,0,rectangle,18,5,1,0,0,6,4,"[291,4,69,5,178,320,24,125,294,68,70,98,141,16,252,21,231,300,63,243]",18,5,1,0,0,0,40,40,4,1,,,,,,,,,,,,,,,,,,,,,,,
,,,,,,,,,,,,,,,,,,,,,,,,,,,,,,,,,,,,,,,,,,,5e3c601a8134d004b0ed397a,5fe2f7b75474cdf127f4655a,2020-12-23_07h55.00.550,FlowerSimilarity_Experiment,2020.1.2,Win32,60,5fe17d4a51f3a9c1a60f9869,,,,,,,,,,,,,,,,,,,9,PF,,6,2.548855,,,,,,,,,,,,,,,,,,,,,,,,,,,,,,,,,,95,40,1,0,0,response1disk,7,42,2.000061035,-6,1,0,0,rectangle,2.000061035,-6,1,0,0,6,5,"[291,4,69,5,178,320,24,125,294,68,70,98,141,16,252,21,231,300,63,243]",2.000061035,-6,1,0,0,0,41,41,121,1,,,,,,,,,,,,,,,,,,,,,,,
,,,,,,,,,,,,,,,,,,,,,,,,,,,,,,,,,,,,,,,,,,,5e3c601a8134d004b0ed397a,5fe2f7b75474cdf127f4655a,2020-12-23_07h55.00.550,FlowerSimilarity_Experiment,2020.1.2,Win32,60,5fe17d4a51f3a9c1a60f9869,,,,,,,,,,,,,,,,,,,1,FF,,7,1.2668,,,,,,,,,,,,,,,,,,,,,,,,,,,,,,,,,,35.00006104,67,1,0,0,response1disk,8,43,10,11,1,0,0,rectangle,10,11,1,0,0,6,7,"[291,4,69,5,178,320,24,125,294,68,70,98,141,16,252,21,231,300,63,243]",10,11,1,0,0,0,42,42,27,1,,,,,,,,,,,,,,,,,,,,,,,
,,,,,,,,,,,,,,,,,,,,,,,,,,,,,,,,,,,,,,,,,,,5e3c601a8134d004b0ed397a,5fe2f7b75474cdf127f4655a,2020-12-23_07h55.00.550,FlowerSimilarity_Experiment,2020.1.2,Win32,60,5fe17d4a51f3a9c1a60f9869,,,,,,,,,,,,,,,,,,,1,FF,,7,1.91485,,,,,,,,,,,,,,,,,,,,,,,,,,,,,,,,,,37,112.9999695,1,0,0,response1disk,9,44,32.00006104,-20,1,0,0,rectangle,32.00006104,-20,1,0,0,5,4,"[291,4,69,5,178,320,24,125,294,68,70,98,141,16,252,21,231,300,63,243]",32.00006104,-20,1,0,0,0,43,43,123,1,,,,,,,,,,,,,,,,,,,,,,,
,,,,,,,,,,,,,,,,,,,,,,,,,,,,,,,,,,,,,,,,,,,5e3c601a8134d004b0ed397a,5fe2f7b75474cdf127f4655a,2020-12-23_07h55.00.550,FlowerSimilarity_Experiment,2020.1.2,Win32,60,5fe17d4a51f3a9c1a60f9869,,,,,,,,,,,,,,,,,,,5,FF,,4,0.994155,,,,,,,,,,,,,,,,,,,,,,,,,,,,,,,,,,54,-89,1,0,0,response3disk,6,45,8.000061035,0,1,0,0,rectangle,8.000061035,0,1,0,0,5,3,"[291,4,69,5,178,320,24,125,294,68,70,98,141,16,252,21,231,300,63,243]",8.000061035,0,1,0,0,0,44,44,12,1,,,,,,,,,,,,,,,,,,,,,,,
,,,,,,,,,,,,,,,,,,,,,,,,,,,,,,,,,,,,,,,,,,,5e3c601a8134d004b0ed397a,5fe2f7b75474cdf127f4655a,2020-12-23_07h55.00.550,FlowerSimilarity_Experiment,2020.1.2,Win32,60,5fe17d4a51f3a9c1a60f9869,,,,,,,,,,,,,,,,,,,9,FF,,6,1.398315,,,,,,,,,,,,,,,,,,,,,,,,,,,,,,,,,,81,78,1,0,0,response1disk,6,46,0,12,1,0,0,rectangle,0,12,1,0,0,5,5,"[291,4,69,5,178,320,24,125,294,68,70,98,141,16,252,21,231,300,63,243]",0,12,1,0,0,0,45,45,117,1,,,,,,,,,,,,,,,,,,,,,,,
,,,,,,,,,,,,,,,,,,,,,,,,,,,,,,,,,,,,,,,,,,,5e3c601a8134d004b0ed397a,5fe2f7b75474cdf127f4655a,2020-12-23_07h55.00.550,FlowerSimilarity_Experiment,2020.1.2,Win32,60,5fe17d4a51f3a9c1a60f9869,,,,,,,,,,,,,,,,,,,4,PF,,7,1.25418,,,,,,,,,,,,,,,,,,,,,,,,,,,,,,,,,,38.00006104,73.99996948,1,0,0,response1disk,8,47,18,11,1,0,0,rectangle,18,11,1,0,0,5,3,"[291,4,69,5,178,320,24,125,294,68,70,98,141,16,252,21,231,300,63,243]",18,11,1,0,0,0,46,46,124,1,,,,,,,,,,,,,,,,,,,,,,,
,,,,,,,,,,,,,,,,,,,,,,,,,,,,,,,,,,,,,,,,,,,5e3c601a8134d004b0ed397a,5fe2f7b75474cdf127f4655a,2020-12-23_07h55.00.550,FlowerSimilarity_Experiment,2020.1.2,Win32,60,5fe17d4a51f3a9c1a60f9869,,,,,,,,,,,,,,,,,,,1,PF,,1,1.69732,,,,,,,,,,,,,,,,,,,,,,,,,,,,,,,,,,-90,49,1,0,0,response7disk,1,48,-18,5,1,0,0,rectangle,-18,5,1,0,0,5,6,"[291,4,69,5,178,320,24,125,294,68,70,98,141,16,252,21,231,300,63,243]",-18,5,1,0,0,0,47,47,76,1,,,,,,,,,,,,,,,,,,,,,,,
,,,,,,,,,,,,,,,,,,,,,,,,,,,,,,,,,,,,,,,,,,,5e3c601a8134d004b0ed397a,5fe2f7b75474cdf127f4655a,2020-12-23_07h55.00.550,FlowerSimilarity_Experiment,2020.1.2,Win32,60,5fe17d4a51f3a9c1a60f9869,,,,,,,,,,,,,,,,,,,7,FF,,2,1.93197,,,,,,,,,,,,,,,,,,,,,,,,,,,,,,,,,,-86,-15,1,0,0,response5disk,3,49,-39.99993896,13,1,0,0,rectangle,-39.99993896,13,1,0,0,5,1,"[291,4,69,5,178,320,24,125,294,68,70,98,141,16,252,21,231,300,63,243]",-39.99993896,13,1,0,0,0,48,48,73,1,,,,,,,,,,,,,,,,,,,,,,,
,,,,,,,,,,,,,,,,,,,,,,,,,,,,,,,,,,,,,,,,,,,5e3c601a8134d004b0ed397a,5fe2f7b75474cdf127f4655a,2020-12-23_07h55.00.550,FlowerSimilarity_Experiment,2020.1.2,Win32,60,5fe17d4a51f3a9c1a60f9869,,,,,,,,,,,,,,,,,,,8,FF,,7,1.23965,,,,,,,,,,,,,,,,,,,,,,,,,,,,,,,,,,37,93,1,0,0,response1disk,2,50,5.000061035,-4,1,0,0,rectangle,5.000061035,-4,1,0,0,5,2,"[291,4,69,5,178,320,24,125,294,68,70,98,141,16,252,21,231,300,63,243]",5.000061035,-4,1,0,0,0,49,49,22,1,,,,,,,,,,,,,,,,,,,,,,,
,,,,,,,,,,,,,,,,,,,,,,,,,,,,,,,,,,,,,,,,,,,5e3c601a8134d004b0ed397a,5fe2f7b75474cdf127f4655a,2020-12-23_07h55.00.550,FlowerSimilarity_Experiment,2020.1.2,Win32,60,5fe17d4a51f3a9c1a60f9869,,,,,,,,,,,,,,,,,,,8,PF,,7,1.23963,,,,,,,,,,,,,,,,,,,,,,,,,,,,,,,,,,46,87,1,0,0,response1disk,2,51,-3.999938965,-10,1,0,0,rectangle,-3.999938965,-10,1,0,0,5,1,"[291,4,69,5,178,320,24,125,294,68,70,98,141,16,252,21,231,300,63,243]",-3.999938965,-10,1,0,0,0,50,50,83,1,,,,,,,,,,,,,,,,,,,,,,,
,,,,,,,,,,,,,,,,,,,,,,,,,,,,,,,,,,,,,,,,,,,5e3c601a8134d004b0ed397a,5fe2f7b75474cdf127f4655a,2020-12-23_07h55.00.550,FlowerSimilarity_Experiment,2020.1.2,Win32,60,5fe17d4a51f3a9c1a60f9869,,,,,,,,,,,,,,,,,,,8,FF,,0,1.539485,,,,,,,,,,,,,,,,,,,,,,,,,,,,,,,,,,-72,88,1,0,0,response7disk,8,52,-9,-5,1,0,0,rectangle,-9,-5,1,0,0,5,2,"[291,4,69,5,178,320,24,125,294,68,70,98,141,16,252,21,231,300,63,243]",-9,-5,1,0,0,0,51,51,48,1,,,,,,,,,,,,,,,,,,,,,,,
,,,,,,,,,,,,,,,,,,,,,,,,,,,,,,,,,,,,,,,,,,,5e3c601a8134d004b0ed397a,5fe2f7b75474cdf127f4655a,2020-12-23_07h55.00.550,FlowerSimilarity_Experiment,2020.1.2,Win32,60,5fe17d4a51f3a9c1a60f9869,,,,,,,,,,,,,,,,,,,5,FF,,0,1.33108,,,,,,,,,,,,,,,,,,,,,,,,,,,,,,,,,,-30,55.99996948,1,0,0,response7disk,5,53,-5,-4,1,0,0,rectangle,-5,-4,1,0,0,5,5,"[291,4,69,5,178,320,24,125,294,68,70,98,141,16,252,21,231,300,63,243]",-5,-4,1,0,0,0,52,52,19,1,,,,,,,,,,,,,,,,,,,,,,,
,,,,,,,,,,,,,,,,,,,,,,,,,,,,,,,,,,,,,,,,,,,5e3c601a8134d004b0ed397a,5fe2f7b75474cdf127f4655a,2020-12-23_07h55.00.550,FlowerSimilarity_Experiment,2020.1.2,Win32,60,5fe17d4a51f3a9c1a60f9869,,,,,,,,,,,,,,,,,,,5,FF,,6,2.26438,,,,,,,,,,,,,,,,,,,,,,,,,,,,,,,,,,70,24,1,0,0,response1disk,7,54,0,11,1,0,0,rectangle,0,11,1,0,0,5,1,"[291,4,69,5,178,320,24,125,294,68,70,98,141,16,252,21,231,300,63,243]",0,11,1,0,0,0,53,53,7,1,,,,,,,,,,,,,,,,,,,,,,,
,,,,,,,,,,,,,,,,,,,,,,,,,,,,,,,,,,,,,,,,,,,5e3c601a8134d004b0ed397a,5fe2f7b75474cdf127f4655a,2020-12-23_07h55.00.550,FlowerSimilarity_Experiment,2020.1.2,Win32,60,5fe17d4a51f3a9c1a60f9869,,,,,,,,,,,,,,,,,,,9,PF,,7,1.332,,,,,,,,,,,,,,,,,,,,,,,,,,,,,,,,,,31,94.99996948,1,0,0,response1disk,8,55,14.00006104,1,1,0,0,rectangle,14.00006104,1,1,0,0,5,7,"[291,4,69,5,178,320,24,125,294,68,70,98,141,16,252,21,231,300,63,243]",14.00006104,1,1,0,0,0,54,54,67,1,,,,,,,,,,,,,,,,,,,,,,,
,,,,,,,,,,,,,,,,,,,,,,,,,,,,,,,,,,,,,,,,,,,5e3c601a8134d004b0ed397a,5fe2f7b75474cdf127f4655a,2020-12-23_07h55.00.550,FlowerSimilarity_Experiment,2020.1.2,Win32,60,5fe17d4a51f3a9c1a60f9869,,,,,,,,,,,,,,,,,,,6,PF,,5,1.83251,,,,,,,,,,,,,,,,,,,,,,,,,,,,,,,,,,78,-45,1,0,0,response3disk,9,56,-6.999938965,-1,1,0,0,rectangle,-6.999938965,-1,1,0,0,5,3,"[291,4,69,5,178,320,24,125,294,68,70,98,141,16,252,21,231,300,63,243]",-6.999938965,-1,1,0,0,0,55,55,45,1,,,,,,,,,,,,,,,,,,,,,,,
,,,,,,,,,,,,,,,,,,,,,,,,,,,,,,,,,,,,,,,,,,,5e3c601a8134d004b0ed397a,5fe2f7b75474cdf127f4655a,2020-12-23_07h55.00.550,FlowerSimilarity_Experiment,2020.1.2,Win32,60,5fe17d4a51f3a9c1a60f9869,,,,,,,,,,,,,,,,,,,9,PF,,5,1.29921,,,,,,,,,,,,,,,,,,,,,,,,,,,,,,,,,,79,-33,1,0,0,response3disk,2,57,5.000061035,16,1,0,0,rectangle,5.000061035,16,1,0,0,5,0,"[291,4,69,5,178,320,24,125,294,68,70,98,141,16,252,21,231,300,63,243]",5.000061035,16,1,0,0,0,56,56,157,1,,,,,,,,,,,,,,,,,,,,,,,
,,,,,,,,,,,,,,,,,,,,,,,,,,,,,,,,,,,,,,,,,,,5e3c601a8134d004b0ed397a,5fe2f7b75474cdf127f4655a,2020-12-23_07h55.00.550,FlowerSimilarity_Experiment,2020.1.2,Win32,60,5fe17d4a51f3a9c1a60f9869,,,,,,,,,,,,,,,,,,,6,FF,,7,2.164595,,,,,,,,,,,,,,,,,,,,,,,,,,,,,,,,,,31,94,1,0,0,response1disk,5,58,1,8,1,0,0,rectangle,1,8,1,0,0,5,7,"[291,4,69,5,178,320,24,125,294,68,70,98,141,16,252,21,231,300,63,243]",1,8,1,0,0,0,57,57,126,1,,,,,,,,,,,,,,,,,,,,,,,
,,,,,,,,,,,,,,,,,,,,,,,,,,,,,,,,,,,,,,,,,,,5e3c601a8134d004b0ed397a,5fe2f7b75474cdf127f4655a,2020-12-23_07h55.00.550,FlowerSimilarity_Experiment,2020.1.2,Win32,60,5fe17d4a51f3a9c1a60f9869,,,,,,,,,,,,,,,,,,,8,FF,,3,2.64723,,,,,,,,,,,,,,,,,,,,,,,,,,,,,,,,,,-41,-77,1,0,0,response5disk,5,59,-11,-2,1,0,0,rectangle,-11,-2,1,0,0,5,6,"[291,4,69,5,178,320,24,125,294,68,70,98,141,16,252,21,231,300,63,243]",-11,-2,1,0,0,0,58,58,152,1,,,,,,,,,,,,,,,,,,,,,,,
,,,,,,,,,,,,,,,,,,,,,,,,,,,,,,,,,,,,,,,,,,,5e3c601a8134d004b0ed397a,5fe2f7b75474cdf127f4655a,2020-12-23_07h55.00.550,FlowerSimilarity_Experiment,2020.1.2,Win32,60,5fe17d4a51f3a9c1a60f9869,,,,,,,,,,,,,,,,,,,4,PF,,7,1.5213,,,,,,,,,,,,,,,,,,,,,,,,,,,,,,,,,,34,88.99996948,1,0,0,response1disk,5,60,-6,-1,1,0,0,rectangle,-6,-1,1,0,0,5,3,"[291,4,69,5,178,320,24,125,294,68,70,98,141,16,252,21,231,300,63,243]",-6,-1,1,0,0,0,59,59,49,1,,,,,,,,,,,,,,,,,,,,,,,
,,,,,,,,,,,,,,,,,,,,,,,,,,,,,,,,,,,,,,,,,,,5e3c601a8134d004b0ed397a,5fe2f7b75474cdf127f4655a,2020-12-23_07h55.00.550,FlowerSimilarity_Experiment,2020.1.2,Win32,60,5fe17d4a51f3a9c1a60f9869,,,,,,,,,,,,,,,,,,,4,PF,,2,2.1706,,,,,,,,,,,,,,,,,,,,,,,,,,,,,,,,,,-104,-45,1,0,0,response5disk,4,61,-3.999938965,2,1,0,0,rectangle,-3.999938965,2,1,0,0,5,7,"[291,4,69,5,178,320,24,125,294,68,70,98,141,16,252,21,231,300,63,243]",-3.999938965,2,1,0,0,0,60,60,70,1,,,,,,,,,,,,,,,,,,,,,,,
,,,,,,,,,,,,,,,,,,,,,,,,,,,,,,,,,,,,,,,,,,,5e3c601a8134d004b0ed397a,5fe2f7b75474cdf127f4655a,2020-12-23_07h55.00.550,FlowerSimilarity_Experiment,2020.1.2,Win32,60,5fe17d4a51f3a9c1a60f9869,,,,,,,,,,,,,,,,,,,2,FF,,7,1.3017,,,,,,,,,,,,,,,,,,,,,,,,,,,,,,,,,,32.00006104,73,1,0,0,response1disk,8,62,-42.99993896,-14,1,0,0,rectangle,-42.99993896,-14,1,0,0,5,1,"[291,4,69,5,178,320,24,125,294,68,70,98,141,16,252,21,231,300,63,243]",-42.99993896,-14,1,0,0,0,61,61,62,1,,,,,,,,,,,,,,,,,,,,,,,
,,,,,,,,,,,,,,,,,,,,,,,,,,,,,,,,,,,,,,,,,,,5e3c601a8134d004b0ed397a,5fe2f7b75474cdf127f4655a,2020-12-23_07h55.00.550,FlowerSimilarity_Experiment,2020.1.2,Win32,60,5fe17d4a51f3a9c1a60f9869,,,,,,,,,,,,,,,,,,,1,FF,,7,2.005255,,,,,,,,,,,,,,,,,,,,,,,,,,,,,,,,,,28,103.9999695,1,0,0,response1disk,4,63,8.000061035,-2,1,0,0,rectangle,91,-43,1,0,0,5,5,"[291,4,69,5,178,320,24,125,294,68,70,98,141,16,252,21,231,300,63,243]",29.00006104,10,1,0,0,0,62,62,135,1,response3disk_3,rectangle,,,,,,,,,,,,,,,,,,,,,
,,,,,,,,,,,,,,,,,,,,,,,,,,,,,,,,,,,,,,,,,,,5e3c601a8134d004b0ed397a,5fe2f7b75474cdf127f4655a,2020-12-23_07h55.00.550,FlowerSimilarity_Experiment,2020.1.2,Win32,60,5fe17d4a51f3a9c1a60f9869,,,,,,,,,,,,,,,,,,,7,PF,,7,2.02312,,,,,,,,,,,,,,,,,,,,,,,,,,,,,,,,,,33,91,1,0,0,response1disk,1,64,6,-11,1,0,0,rectangle,6,-11,1,0,0,5,1,"[291,4,69,5,178,320,24,125,294,68,70,98,141,16,252,21,231,300,63,243]",6,-11,1,0,0,0,63,63,53,1,,,,,,,,,,,,,,,,,,,,,,,
,,,,,,,,,,,,,,,,,,,,,,,,,,,,,,,,,,,,,,,,,,,5e3c601a8134d004b0ed397a,5fe2f7b75474cdf127f4655a,2020-12-23_07h55.00.550,FlowerSimilarity_Experiment,2020.1.2,Win32,60,5fe17d4a51f3a9c1a60f9869,,,,,,,,,,,,,,,,,,,7,PF,,0,1.336195,,,,,,,,,,,,,,,,,,,,,,,,,,,,,,,,,,-47,103,1,0,0,response7disk,7,65,13,-11,1,0,0,rectangle,13,-11,1,0,0,5,5,"[291,4,69,5,178,320,24,125,294,68,70,98,141,16,252,21,231,300,63,243]",13,-11,1,0,0,0,64,64,51,1,,,,,,,,,,,,,,,,,,,,,,,
,,,,,,,,,,,,,,,,,,,,,,,,,,,,,,,,,,,,,,,,,,,5e3c601a8134d004b0ed397a,5fe2f7b75474cdf127f4655a,2020-12-23_07h55.00.550,FlowerSimilarity_Experiment,2020.1.2,Win32,60,5fe17d4a51f3a9c1a60f9869,,,,,,,,,,,,,,,,,,,6,PF,,0,2.139075,,,,,,,,,,,,,,,,,,,,,,,,,,,,,,,,,,-75,105,1,0,0,response7disk,2,66,-3,2,1,0,0,rectangle,-3,2,1,0,0,5,6,"[291,4,69,5,178,320,24,125,294,68,70,98,141,16,252,21,231,300,63,243]",-3,2,1,0,0,0,65,65,130,1,,,,,,,,,,,,,,,,,,,,,,,
,,,,,,,,,,,,,,,,,,,,,,,,,,,,,,,,,,,,,,,,,,,5e3c601a8134d004b0ed397a,5fe2f7b75474cdf127f4655a,2020-12-23_07h55.00.550,FlowerSimilarity_Experiment,2020.1.2,Win32,60,5fe17d4a51f3a9c1a60f9869,,,,,,,,,,,,,,,,,,,2,FF,,7,1.18768,,,,,,,,,,,,,,,,,,,,,,,,,,,,,,,,,,45,73,1,0,0,response1disk,6,67,24,1,1,0,0,rectangle,24,1,1,0,0,5,5,"[291,4,69,5,178,320,24,125,294,68,70,98,141,16,252,21,231,300,63,243]",24,1,1,0,0,0,66,66,40,1,,,,,,,,,,,,,,,,,,,,,,,
,,,,,,,,,,,,,,,,,,,,,,,,,,,,,,,,,,,,,,,,,,,5e3c601a8134d004b0ed397a,5fe2f7b75474cdf127f4655a,2020-12-23_07h55.00.550,FlowerSimilarity_Experiment,2020.1.2,Win32,60,5fe17d4a51f3a9c1a60f9869,,,,,,,,,,,,,,,,,,,4,PF,,4,1.93938,,,,,,,,,,,,,,,,,,,,,,,,,,,,,,,,,,50.00006104,-90,1,0,0,response3disk,3,68,14.00006104,0,1,0,0,rectangle,-99,-59,1,0,0,5,2,"[291,4,69,5,178,320,24,125,294,68,70,98,141,16,252,21,231,300,63,243]",12,11,1,0,0,0,67,67,89,1,response5disk_3,rectangle,,,,,,,,,,,,,,,,,,,,,
,,,,,,,,,,,,,,,,,,,,,,,,,,,,,,,,,,,,,,,,,,,5e3c601a8134d004b0ed397a,5fe2f7b75474cdf127f4655a,2020-12-23_07h55.00.550,FlowerSimilarity_Experiment,2020.1.2,Win32,60,5fe17d4a51f3a9c1a60f9869,,,,,,,,,,,,,,,,,,,1,PF,,7,1.782645,,,,,,,,,,,,,,,,,,,,,,,,,,,,,,,,,,42,94,1,0,0,response1disk,8,69,3,2,1,0,0,rectangle,-33.99993896,-71,1,0,0,3,3,"[291,4,69,5,178,320,24,125,294,68,70,98,141,16,252,21,231,300,63,243]",-6.999938965,-2,1,0,0,0,68,68,65,1,response5disk_3,rectangle,,,,,,,,,,,,,,,,,,,,,
,,,,,,,,,,,,,,,,,,,,,,,,,,,,,,,,,,,,,,,,,,,5e3c601a8134d004b0ed397a,5fe2f7b75474cdf127f4655a,2020-12-23_07h55.00.550,FlowerSimilarity_Experiment,2020.1.2,Win32,60,5fe17d4a51f3a9c1a60f9869,,,,,,,,,,,,,,,,,,,7,PF,,6,1.449275,,,,,,,,,,,,,,,,,,,,,,,,,,,,,,,,,,96,46.99996948,1,0,0,response1disk,2,70,-30.99993896,16,1,0,0,rectangle,-30.99993896,16,1,0,0,1,7,"[291,4,69,5,178,320,24,125,294,68,70,98,141,16,252,21,231,300,63,243]",2.000061035,-2,1,0,0,0,69,69,32,1,response7disk_3,rectangle,,,,,,,,,,,,,,,,,,,,,
,,,,,,,,,,,,,,,,,,,,,,,,,,,,,,,,,,,,,,,,,,,5e3c601a8134d004b0ed397a,5fe2f7b75474cdf127f4655a,2020-12-23_07h55.00.550,FlowerSimilarity_Experiment,2020.1.2,Win32,60,5fe17d4a51f3a9c1a60f9869,,,,,,,,,,,,,,,,,,,6,PF,,7,1.358095,,,,,,,,,,,,,,,,,,,,,,,,,,,,,,,,,,28,103,1,0,0,response1disk,3,71,13,14,1,0,0,rectangle,13,14,1,0,0,1,3,"[291,4,69,5,178,320,24,125,294,68,70,98,141,16,252,21,231,300,63,243]",13,14,1,0,0,0,70,70,26,1,,,,,,,,,,,,,,,,,,,,,,,
,,,,,,,,,,,,,,,,,,,,,,,,,,,,,,,,,,,,,,,,,,,5e3c601a8134d004b0ed397a,5fe2f7b75474cdf127f4655a,2020-12-23_07h55.00.550,FlowerSimilarity_Experiment,2020.1.2,Win32,60,5fe17d4a51f3a9c1a60f9869,,,,,,,,,,,,,,,,,,,2,FF,,6,1.655075,,,,,,,,,,,,,,,,,,,,,,,,,,,,,,,,,,102,34.99996948,1,0,0,response1disk,3,72,-21.99993896,12,1,0,0,rectangle,-21.99993896,12,1,0,0,1,0,"[291,4,69,5,178,320,24,125,294,68,70,98,141,16,252,21,231,300,63,243]",-21.99993896,12,1,0,0,0,71,71,104,1,,,,,,,,,,,,,,,,,,,,,,,
,,,,,,,,,,,,,,,,,,,,,,,,,,,,,,,,,,,,,,,,,,,5e3c601a8134d004b0ed397a,5fe2f7b75474cdf127f4655a,2020-12-23_07h55.00.550,FlowerSimilarity_Experiment,2020.1.2,Win32,60,5fe17d4a51f3a9c1a60f9869,,,,,,,,,,,,,,,,,,,5,FF,,7,2.17988,,,,,,,,,,,,,,,,,,,,,,,,,,,,,,,,,,20.00006104,73.99996948,1,0,0,response1disk,4,73,-2,8,1,0,0,rectangle,-2,8,1,0,0,1,7,"[291,4,69,5,178,320,24,125,294,68,70,98,141,16,252,21,231,300,63,243]",-2,8,1,0,0,0,72,72,8,1,,,,,,,,,,,,,,,,,,,,,,,
,,,,,,,,,,,,,,,,,,,,,,,,,,,,,,,,,,,,,,,,,,,5e3c601a8134d004b0ed397a,5fe2f7b75474cdf127f4655a,2020-12-23_07h55.00.550,FlowerSimilarity_Experiment,2020.1.2,Win32,60,5fe17d4a51f3a9c1a60f9869,,,,,,,,,,,,,,,,,,,6,PF,,3,3.49725,,,,,,,,,,,,,,,,,,,,,,,,,,,,,,,,,,-24.99993896,-97,1,0,0,response5disk,6,74,-12.99993896,8,1,0,0,rectangle,-12.99993896,8,1,0,0,1,3,"[291,4,69,5,178,320,24,125,294,68,70,98,141,16,252,21,231,300,63,243]",-12.99993896,8,1,0,0,0,73,73,0,1,,,,,,,,,,,,,,,,,,,,,,,
,,,,,,,,,,,,,,,,,,,,,,,,,,,,,,,,,,,,,,,,,,,5e3c601a8134d004b0ed397a,5fe2f7b75474cdf127f4655a,2020-12-23_07h55.00.550,FlowerSimilarity_Experiment,2020.1.2,Win32,60,5fe17d4a51f3a9c1a60f9869,,,,,,,,,,,,,,,,,,,2,FF,,6,2.846705,,,,,,,,,,,,,,,,,,,,,,,,,,,,,,,,,,107,54,1,0,0,response1disk,4,75,6,6,1,0,0,rectangle,6,6,1,0,0,1,5,"[291,4,69,5,178,320,24,125,294,68,70,98,141,16,252,21,231,300,63,243]",6,6,1,0,0,0,74,74,145,1,,,,,,,,,,,,,,,,,,,,,,,
,,,,,,,,,,,,,,,,,,,,,,,,,,,,,,,,,,,,,,,,,,,5e3c601a8134d004b0ed397a,5fe2f7b75474cdf127f4655a,2020-12-23_07h55.00.550,FlowerSimilarity_Experiment,2020.1.2,Win32,60,5fe17d4a51f3a9c1a60f9869,,,,,,,,,,,,,,,,,,,3,FF,,7,1.43224,,,,,,,,,,,,,,,,,,,,,,,,,,,,,,,,,,31,109,1,0,0,response1disk,6,76,27,-4,1,0,0,rectangle,27,-4,1,0,0,1,3,"[291,4,69,5,178,320,24,125,294,68,70,98,141,16,252,21,231,300,63,243]",27,-4,1,0,0,0,75,75,95,1,,,,,,,,,,,,,,,,,,,,,,,
,,,,,,,,,,,,,,,,,,,,,,,,,,,,,,,,,,,,,,,,,,,5e3c601a8134d004b0ed397a,5fe2f7b75474cdf127f4655a,2020-12-23_07h55.00.550,FlowerSimilarity_Experiment,2020.1.2,Win32,60,5fe17d4a51f3a9c1a60f9869,,,,,,,,,,,,,,,,,,,2,FF,,7,1.232945,,,,,,,,,,,,,,,,,,,,,,,,,,,,,,,,,,54,82,1,0,0,response1disk,2,77,9,4,1,0,0,rectangle,9,4,1,0,0,1,5,"[291,4,69,5,178,320,24,125,294,68,70,98,141,16,252,21,231,300,63,243]",9,4,1,0,0,0,76,76,142,1,,,,,,,,,,,,,,,,,,,,,,,
,,,,,,,,,,,,,,,,,,,,,,,,,,,,,,,,,,,,,,,,,,,5e3c601a8134d004b0ed397a,5fe2f7b75474cdf127f4655a,2020-12-23_07h55.00.550,FlowerSimilarity_Experiment,2020.1.2,Win32,60,5fe17d4a51f3a9c1a60f9869,,,,,,,,,,,,,,,,,,,8,PF,,2,1.549455,,,,,,,,,,,,,,,,,,,,,,,,,,,,,,,,,,-65,-43,1,0,0,response5disk,5,78,-17,-3,1,0,0,rectangle,-17,-3,1,0,0,1,4,"[291,4,69,5,178,320,24,125,294,68,70,98,141,16,252,21,231,300,63,243]",-17,-3,1,0,0,0,77,77,98,1,,,,,,,,,,,,,,,,,,,,,,,
,,,,,,,,,,,,,,,,,,,,,,,,,,,,,,,,,,,,,,,,,,,5e3c601a8134d004b0ed397a,5fe2f7b75474cdf127f4655a,2020-12-23_07h55.00.550,FlowerSimilarity_Experiment,2020.1.2,Win32,60,5fe17d4a51f3a9c1a60f9869,,,,,,,,,,,,,,,,,,,1,PF,,5,1.81579,,,,,,,,,,,,,,,,,,,,,,,,,,,,,,,,,,65,-47,1,0,0,response3disk,4,79,-6.999938965,-5,1,0,0,rectangle,-6.999938965,-5,1,0,0,1,4,"[291,4,69,5,178,320,24,125,294,68,70,98,141,16,252,21,231,300,63,243]",-6.999938965,-5,1,0,0,0,78,78,139,1,,,,,,,,,,,,,,,,,,,,,,,
,,,,,,,,,,,,,,,,,,,,,,,,,,,,,,,,,,,,,,,,,,,5e3c601a8134d004b0ed397a,5fe2f7b75474cdf127f4655a,2020-12-23_07h55.00.550,FlowerSimilarity_Experiment,2020.1.2,Win32,60,5fe17d4a51f3a9c1a60f9869,,,,,,,,,,,,,,,,,,,5,PF,,7,1.682,,,,,,,,,,,,,,,,,,,,,,,,,,,,,,,,,,25,97,1,0,0,response1disk,7,80,-12,-5,1,0,0,rectangle,-12,-5,1,0,0,1,7,"[291,4,69,5,178,320,24,125,294,68,70,98,141,16,252,21,231,300,63,243]",-12,-5,1,0,0,0,79,79,146,1,,,,,,,,,,,,,,,,,,,,,,,
,,,,,,,,,,,,,,,,,,,,,,,,,,,,,,,,,,,,,,,,,,,5e3c601a8134d004b0ed397a,5fe2f7b75474cdf127f4655a,2020-12-23_07h55.00.550,FlowerSimilarity_Experiment,2020.1.2,Win32,60,5fe17d4a51f3a9c1a60f9869,,,,,,,,,,,,,,,,,,,8,FF,,4,2.19948,,,,,,,,,,,,,,,,,,,,,,,,,,,,,,,,,,48,-96,1,0,0,response3disk,9,81,17.00006104,4,1,0,0,rectangle,17.00006104,4,1,0,0,1,5,"[291,4,69,5,178,320,24,125,294,68,70,98,141,16,252,21,231,300,63,243]",17.00006104,4,1,0,0,0,80,80,105,1,,,,,,,,,,,,,,,,,,,,,,,
,,,,,,,,,,,,,,,,,,,,,,,,,,,,,,,,,,,,,,,,,,,5e3c601a8134d004b0ed397a,5fe2f7b75474cdf127f4655a,2020-12-23_07h55.00.550,FlowerSimilarity_Experiment,2020.1.2,Win32,60,5fe17d4a51f3a9c1a60f9869,,,,,,,,,,,,,,,,,,,3,PF,,4,2.032595,,,,,,,,,,,,,,,,,,,,,,,,,,,,,,,,,,42,-67,1,0,0,response3disk,2,82,9,-10,1,0,0,rectangle,9,-10,1,0,0,1,4,"[291,4,69,5,178,320,24,125,294,68,70,98,141,16,252,21,231,300,63,243]",9,-10,1,0,0,0,81,81,36,1,,,,,,,,,,,,,,,,,,,,,,,
,,,,,,,,,,,,,,,,,,,,,,,,,,,,,,,,,,,,,,,,,,,5e3c601a8134d004b0ed397a,5fe2f7b75474cdf127f4655a,2020-12-23_07h55.00.550,FlowerSimilarity_Experiment,2020.1.2,Win32,60,5fe17d4a51f3a9c1a60f9869,,,,,,,,,,,,,,,,,,,1,FF,,5,3.1186,,,,,,,,,,,,,,,,,,,,,,,,,,,,,,,,,,75,-48,1,0,0,response3disk,5,83,-45.99993896,6,1,0,0,rectangle,-45.99993896,6,1,0,0,1,1,"[291,4,69,5,178,320,24,125,294,68,70,98,141,16,252,21,231,300,63,243]",-45.99993896,6,1,0,0,0,82,82,82,1,,,,,,,,,,,,,,,,,,,,,,,
,,,,,,,,,,,,,,,,,,,,,,,,,,,,,,,,,,,,,,,,,,,5e3c601a8134d004b0ed397a,5fe2f7b75474cdf127f4655a,2020-12-23_07h55.00.550,FlowerSimilarity_Experiment,2020.1.2,Win32,60,5fe17d4a51f3a9c1a60f9869,,,,,,,,,,,,,,,,,,,5,FF,,6,3.537715,,,,,,,,,,,,,,,,,,,,,,,,,,,,,,,,,,106,40,1,0,0,response1disk,8,84,-33,12,1,0,0,rectangle,-33,12,1,0,0,1,2,"[291,4,69,5,178,320,24,125,294,68,70,98,141,16,252,21,231,300,63,243]",-33,12,1,0,0,0,83,83,16,1,,,,,,,,,,,,,,,,,,,,,,,
,,,,,,,,,,,,,,,,,,,,,,,,,,,,,,,,,,,,,,,,,,,5e3c601a8134d004b0ed397a,5fe2f7b75474cdf127f4655a,2020-12-23_07h55.00.550,FlowerSimilarity_Experiment,2020.1.2,Win32,60,5fe17d4a51f3a9c1a60f9869,,,,,,,,,,,,,,,,,,,9,PF,,5,1.95411,,,,,,,,,,,,,,,,,,,,,,,,,,,,,,,,,,82,-51,1,0,0,response3disk,4,85,14.00006104,2,1,0,0,rectangle,14.00006104,2,1,0,0,1,7,"[291,4,69,5,178,320,24,125,294,68,70,98,141,16,252,21,231,300,63,243]",14.00006104,2,1,0,0,0,84,84,114,1,,,,,,,,,,,,,,,,,,,,,,,
,,,,,,,,,,,,,,,,,,,,,,,,,,,,,,,,,,,,,,,,,,,5e3c601a8134d004b0ed397a,5fe2f7b75474cdf127f4655a,2020-12-23_07h55.00.550,FlowerSimilarity_Experiment,2020.1.2,Win32,60,5fe17d4a51f3a9c1a60f9869,,,,,,,,,,,,,,,,,,,8,PF,,6,1.882265,,,,,,,,,,,,,,,,,,,,,,,,,,,,,,,,,,79,34.99996948,1,0,0,response1disk,1,86,-27,-16,1,0,0,rectangle,-27,-16,1,0,0,1,3,"[291,4,69,5,178,320,24,125,294,68,70,98,141,16,252,21,231,300,63,243]",-27,-16,1,0,0,0,85,85,57,1,,,,,,,,,,,,,,,,,,,,,,,
,,,,,,,,,,,,,,,,,,,,,,,,,,,,,,,,,,,,,,,,,,,5e3c601a8134d004b0ed397a,5fe2f7b75474cdf127f4655a,2020-12-23_07h55.00.550,FlowerSimilarity_Experiment,2020.1.2,Win32,60,5fe17d4a51f3a9c1a60f9869,,,,,,,,,,,,,,,,,,,2,FF,,5,1.60817,,,,,,,,,,,,,,,,,,,,,,,,,,,,,,,,,,94,-54,1,0,0,response3disk,9,87,-21,14,1,0,0,rectangle,-21,14,1,0,0,1,0,"[291,4,69,5,178,320,24,125,294,68,70,98,141,16,252,21,231,300,63,243]",-21,14,1,0,0,0,86,86,72,1,,,,,,,,,,,,,,,,,,,,,,,
,,,,,,,,,,,,,,,,,,,,,,,,,,,,,,,,,,,,,,,,,,,5e3c601a8134d004b0ed397a,5fe2f7b75474cdf127f4655a,2020-12-23_07h55.00.550,FlowerSimilarity_Experiment,2020.1.2,Win32,60,5fe17d4a51f3a9c1a60f9869,,,,,,,,,,,,,,,,,,,8,PF,,5,1.391295,,,,,,,,,,,,,,,,,,,,,,,,,,,,,,,,,,73,-45,1,0,0,response3disk,3,88,-3,-6,1,0,0,rectangle,-3,-6,1,0,0,1,3,"[291,4,69,5,178,320,24,125,294,68,70,98,141,16,252,21,231,300,63,243]",-3,-6,1,0,0,0,87,87,71,1,,,,,,,,,,,,,,,,,,,,,,,
,,,,,,,,,,,,,,,,,,,,,,,,,,,,,,,,,,,,,,,,,,,5e3c601a8134d004b0ed397a,5fe2f7b75474cdf127f4655a,2020-12-23_07h55.00.550,FlowerSimilarity_Experiment,2020.1.2,Win32,60,5fe17d4a51f3a9c1a60f9869,,,,,,,,,,,,,,,,,,,7,PF,,4,2.6225,,,,,,,,,,,,,,,,,,,,,,,,,,,,,,,,,,59.00006104,-81,1,0,0,response3disk,9,89,9,-9,1,0,0,rectangle,9,-9,1,0,0,1,0,"[291,4,69,5,178,320,24,125,294,68,70,98,141,16,252,21,231,300,63,243]",9,-9,1,0,0,0,88,88,10,1,,,,,,,,,,,,,,,,,,,,,,,
,,,,,,,,,,,,,,,,,,,,,,,,,,,,,,,,,,,,,,,,,,,5e3c601a8134d004b0ed397a,5fe2f7b75474cdf127f4655a,2020-12-23_07h55.00.550,FlowerSimilarity_Experiment,2020.1.2,Win32,60,5fe17d4a51f3a9c1a60f9869,,,,,,,,,,,,,,,,,,,4,FF,,7,1.7048,,,,,,,,,,,,,,,,,,,,,,,,,,,,,,,,,,23.00006104,88.99996948,1,0,0,response1disk,8,90,3,-3,1,0,0,rectangle,3,-3,1,0,0,1,2,"[291,4,69,5,178,320,24,125,294,68,70,98,141,16,252,21,231,300,63,243]",3,-3,1,0,0,0,89,89,35,1,,,,,,,,,,,,,,,,,,,,,,,
,,,,,,,,,,,,,,,,,,,,,,,,,,,,,,,,,,,,,,,,,,,5e3c601a8134d004b0ed397a,5fe2f7b75474cdf127f4655a,2020-12-23_07h55.00.550,FlowerSimilarity_Experiment,2020.1.2,Win32,60,5fe17d4a51f3a9c1a60f9869,,,,,,,,,,,,,,,,,,,2,FF,,2,2.28729,,,,,,,,,,,,,,,,,,,,,,,,,,,,,,,,,,-84.99993896,-48,1,0,0,response5disk,1,91,2.000061035,17,1,0,0,rectangle,2.000061035,17,1,0,0,1,1,"[291,4,69,5,178,320,24,125,294,68,70,98,141,16,252,21,231,300,63,243]",2.000061035,17,1,0,0,0,90,90,85,1,,,,,,,,,,,,,,,,,,,,,,,
,,,,,,,,,,,,,,,,,,,,,,,,,,,,,,,,,,,,,,,,,,,5e3c601a8134d004b0ed397a,5fe2f7b75474cdf127f4655a,2020-12-23_07h55.00.550,FlowerSimilarity_Experiment,2020.1.2,Win32,60,5fe17d4a51f3a9c1a60f9869,,,,,,,,,,,,,,,,,,,9,FF,,4,1.80506,,,,,,,,,,,,,,,,,,,,,,,,,,,,,,,,,,39,-90,1,0,0,response3disk,4,92,12,-10,1,0,0,rectangle,12,-10,1,0,0,1,0,"[291,4,69,5,178,320,24,125,294,68,70,98,141,16,252,21,231,300,63,243]",12,-10,1,0,0,0,91,91,60,1,,,,,,,,,,,,,,,,,,,,,,,
,,,,,,,,,,,,,,,,,,,,,,,,,,,,,,,,,,,,,,,,,,,5e3c601a8134d004b0ed397a,5fe2f7b75474cdf127f4655a,2020-12-23_07h55.00.550,FlowerSimilarity_Experiment,2020.1.2,Win32,60,5fe17d4a51f3a9c1a60f9869,,,,,,,,,,,,,,,,,,,9,FF,,4,1.638095,,,,,,,,,,,,,,,,,,,,,,,,,,,,,,,,,,37,-75,1,0,0,response3disk,1,93,8.000061035,1,1,0,0,rectangle,8.000061035,1,1,0,0,1,3,"[291,4,69,5,178,320,24,125,294,68,70,98,141,16,252,21,231,300,63,243]",8.000061035,1,1,0,0,0,92,92,111,1,,,,,,,,,,,,,,,,,,,,,,,
,,,,,,,,,,,,,,,,,,,,,,,,,,,,,,,,,,,,,,,,,,,5e3c601a8134d004b0ed397a,5fe2f7b75474cdf127f4655a,2020-12-23_07h55.00.550,FlowerSimilarity_Experiment,2020.1.2,Win32,60,5fe17d4a51f3a9c1a60f9869,,,,,,,,,,,,,,,,,,,3,FF,,0,1.72084,,,,,,,,,,,,,,,,,,,,,,,,,,,,,,,,,,-39.99993896,88,1,0,0,response7disk,3,94,12,13,1,0,0,rectangle,12,13,1,0,0,1,1,"[291,4,69,5,178,320,24,125,294,68,70,98,141,16,252,21,231,300,63,243]",12,13,1,0,0,0,93,93,68,1,,,,,,,,,,,,,,,,,,,,,,,
,,,,,,,,,,,,,,,,,,,,,,,,,,,,,,,,,,,,,,,,,,,5e3c601a8134d004b0ed397a,5fe2f7b75474cdf127f4655a,2020-12-23_07h55.00.550,FlowerSimilarity_Experiment,2020.1.2,Win32,60,5fe17d4a51f3a9c1a60f9869,,,,,,,,,,,,,,,,,,,8,PF,,0,1.331615,,,,,,,,,,,,,,,,,,,,,,,,,,,,,,,,,,-36,81,1,0,0,response7disk,8,95,2.000061035,4,1,0,0,rectangle,2.000061035,4,1,0,0,1,3,"[291,4,69,5,178,320,24,125,294,68,70,98,141,16,252,21,231,300,63,243]",2.000061035,4,1,0,0,0,94,94,153,1,,,,,,,,,,,,,,,,,,,,,,,
,,,,,,,,,,,,,,,,,,,,,,,,,,,,,,,,,,,,,,,,,,,5e3c601a8134d004b0ed397a,5fe2f7b75474cdf127f4655a,2020-12-23_07h55.00.550,FlowerSimilarity_Experiment,2020.1.2,Win32,60,5fe17d4a51f3a9c1a60f9869,,,,,,,,,,,,,,,,,,,8,FF,,3,2.5531,,,,,,,,,,,,,,,,,,,,,,,,,,,,,,,,,,-54.99993896,-87,1,0,0,response5disk,3,96,-26,6,1,0,0,rectangle,-26,6,1,0,0,1,1,"[291,4,69,5,178,320,24,125,294,68,70,98,141,16,252,21,231,300,63,243]",-26,6,1,0,0,0,95,95,154,1,,,,,,,,,,,,,,,,,,,,,,,
,,,,,,,,,,,,,,,,,,,,,,,,,,,,,,,,,,,,,,,,,,,5e3c601a8134d004b0ed397a,5fe2f7b75474cdf127f4655a,2020-12-23_07h55.00.550,FlowerSimilarity_Experiment,2020.1.2,Win32,60,5fe17d4a51f3a9c1a60f9869,,,,,,,,,,,,,,,,,,,8,FF,,2,3.23307,,,,,,,,,,,,,,,,,,,,,,,,,,,,,,,,,,-101,-41,1,0,0,response5disk,7,97,-33.99993896,-3,1,0,0,rectangle,-33.99993896,-3,1,0,0,1,5,"[291,4,69,5,178,320,24,125,294,68,70,98,141,16,252,21,231,300,63,243]",-33.99993896,-3,1,0,0,0,96,96,86,1,,,,,,,,,,,,,,,,,,,,,,,
,,,,,,,,,,,,,,,,,,,,,,,,,,,,,,,,,,,,,,,,,,,5e3c601a8134d004b0ed397a,5fe2f7b75474cdf127f4655a,2020-12-23_07h55.00.550,FlowerSimilarity_Experiment,2020.1.2,Win32,60,5fe17d4a51f3a9c1a60f9869,,,,,,,,,,,,,,,,,,,3,FF,,4,1.337885,,,,,,,,,,,,,,,,,,,,,,,,,,,,,,,,,,39,-92,1,0,0,response3disk,9,98,-3,-2,1,0,0,rectangle,-33,-92,1,0,0,3,3,"[291,4,69,5,178,320,24,125,294,68,70,98,141,16,252,21,231,300,63,243]",5.000061035,3,1,0,0,0,97,97,143,1,response5disk_3,rectangle,,,,,,,,,,,,,,,,,,,,,
,,,,,,,,,,,,,,,,,,,,,,,,,,,,,,,,,,,,,,,,,,,5e3c601a8134d004b0ed397a,5fe2f7b75474cdf127f4655a,2020-12-23_07h55.00.550,FlowerSimilarity_Experiment,2020.1.2,Win32,60,5fe17d4a51f3a9c1a60f9869,,,,,,,,,,,,,,,,,,,4,FF,,4,2.971335,,,,,,,,,,,,,,,,,,,,,,,,,,,,,,,,,,62.00006104,-98,1,0,0,response3disk,6,99,3,5,1,0,0,rectangle,3,5,1,0,0,3,0,"[291,4,69,5,178,320,24,125,294,68,70,98,141,16,252,21,231,300,63,243]",3,5,1,0,0,0,98,98,122,1,,,,,,,,,,,,,,,,,,,,,,,
,,,,,,,,,,,,,,,,,,,,,,,,,,,,,,,,,,,,,,,,,,,5e3c601a8134d004b0ed397a,5fe2f7b75474cdf127f4655a,2020-12-23_07h55.00.550,FlowerSimilarity_Experiment,2020.1.2,Win32,60,5fe17d4a51f3a9c1a60f9869,,,,,,,,,,,,,,,,,,,6,FF,,0,1.92193,,,,,,,,,,,,,,,,,,,,,,,,,,,,,,,,,,-84,102,1,0,0,response7disk,6,100,-21.99993896,2,1,0,0,rectangle,-21.99993896,2,1,0,0,3,4,"[291,4,69,5,178,320,24,125,294,68,70,98,141,16,252,21,231,300,63,243]",-21.99993896,2,1,0,0,0,99,99,91,1,,,,,,,,,,,,,,,,,,,,,,,
,,,,,,,,,,,,,,,,,,,,,,,,,,,,,,,,,,,,,,,,,,,5e3c601a8134d004b0ed397a,5fe2f7b75474cdf127f4655a,2020-12-23_07h55.00.550,FlowerSimilarity_Experiment,2020.1.2,Win32,60,5fe17d4a51f3a9c1a60f9869,,,,,,,,,,,,,,,,,,,4,FF,,5,2.432035,,,,,,,,,,,,,,,,,,,,,,,,,,,,,,,,,,80,-34,1,0,0,response3disk,3,101,17.00006104,14,1,0,0,rectangle,17.00006104,14,1,0,0,6,7,"[291,4,69,5,178,320,24,125,294,68,70,98,141,16,252,21,231,300,63,243]",17.00006104,14,1,0,0,0,100,100,77,1,,,,,,,,,,,,,,,,,,,,,,,
,,,,,,,,,,,,,,,,,,,,,,,,,,,,,,,,,,,,,,,,,,,5e3c601a8134d004b0ed397a,5fe2f7b75474cdf127f4655a,2020-12-23_07h55.00.550,FlowerSimilarity_Experiment,2020.1.2,Win32,60,5fe17d4a51f3a9c1a60f9869,,,,,,,,,,,,,,,,,,,2,PF,,3,1.83275,,,,,,,,,,,,,,,,,,,,,,,,,,,,,,,,,,-30.99993896,-92,1,0,0,response5disk,5,102,-14,-2,1,0,0,rectangle,-14,-2,1,0,0,6,5,"[291,4,69,5,178,320,24,125,294,68,70,98,141,16,252,21,231,300,63,243]",-14,-2,1,0,0,0,101,101,147,1,,,,,,,,,,,,,,,,,,,,,,,
,,,,,,,,,,,,,,,,,,,,,,,,,,,,,,,,,,,,,,,,,,,5e3c601a8134d004b0ed397a,5fe2f7b75474cdf127f4655a,2020-12-23_07h55.00.550,FlowerSimilarity_Experiment,2020.1.2,Win32,60,5fe17d4a51f3a9c1a60f9869,,,,,,,,,,,,,,,,,,,6,FF,,7,1.43251,,,,,,,,,,,,,,,,,,,,,,,,,,,,,,,,,,43,85.99996948,1,0,0,response1disk,2,103,0,10,1,0,0,rectangle,0,10,1,0,0,6,3,"[291,4,69,5,178,320,24,125,294,68,70,98,141,16,252,21,231,300,63,243]",0,10,1,0,0,0,102,102,112,1,,,,,,,,,,,,,,,,,,,,,,,
,,,,,,,,,,,,,,,,,,,,,,,,,,,,,,,,,,,,,,,,,,,5e3c601a8134d004b0ed397a,5fe2f7b75474cdf127f4655a,2020-12-23_07h55.00.550,FlowerSimilarity_Experiment,2020.1.2,Win32,60,5fe17d4a51f3a9c1a60f9869,,,,,,,,,,,,,,,,,,,1,PF,,5,2.23172,,,,,,,,,,,,,,,,,,,,,,,,,,,,,,,,,,82,-50,1,0,0,response3disk,5,104,-12,10,1,0,0,rectangle,-12,10,1,0,0,6,3,"[291,4,69,5,178,320,24,125,294,68,70,98,141,16,252,21,231,300,63,243]",-12,10,1,0,0,0,103,103,28,1,,,,,,,,,,,,,,,,,,,,,,,
,,,,,,,,,,,,,,,,,,,,,,,,,,,,,,,,,,,,,,,,,,,5e3c601a8134d004b0ed397a,5fe2f7b75474cdf127f4655a,2020-12-23_07h55.00.550,FlowerSimilarity_Experiment,2020.1.2,Win32,60,5fe17d4a51f3a9c1a60f9869,,,,,,,,,,,,,,,,,,,5,FF,,5,1.40454,,,,,,,,,,,,,,,,,,,,,,,,,,,,,,,,,,80,-46,1,0,0,response3disk,3,105,5.000061035,6,1,0,0,rectangle,5.000061035,6,1,0,0,6,7,"[291,4,69,5,178,320,24,125,294,68,70,98,141,16,252,21,231,300,63,243]",5.000061035,6,1,0,0,0,104,104,25,1,,,,,,,,,,,,,,,,,,,,,,,
,,,,,,,,,,,,,,,,,,,,,,,,,,,,,,,,,,,,,,,,,,,5e3c601a8134d004b0ed397a,5fe2f7b75474cdf127f4655a,2020-12-23_07h55.00.550,FlowerSimilarity_Experiment,2020.1.2,Win32,60,5fe17d4a51f3a9c1a60f9869,,,,,,,,,,,,,,,,,,,1,FF,,0,1.515275,,,,,,,,,,,,,,,,,,,,,,,,,,,,,,,,,,-57.99993896,79,1,0,0,response7disk,1,106,-14,-6,1,0,0,rectangle,-14,-6,1,0,0,6,3,"[291,4,69,5,178,320,24,125,294,68,70,98,141,16,252,21,231,300,63,243]",-14,-6,1,0,0,0,105,105,151,1,,,,,,,,,,,,,,,,,,,,,,,
,,,,,,,,,,,,,,,,,,,,,,,,,,,,,,,,,,,,,,,,,,,5e3c601a8134d004b0ed397a,5fe2f7b75474cdf127f4655a,2020-12-23_07h55.00.550,FlowerSimilarity_Experiment,2020.1.2,Win32,60,5fe17d4a51f3a9c1a60f9869,,,,,,,,,,,,,,,,,,,7,PF,,6,2.26605,,,,,,,,,,,,,,,,,,,,,,,,,,,,,,,,,,72,52,1,0,0,response1disk,4,107,-8,-7,1,0,0,rectangle,-8,-7,1,0,0,6,3,"[291,4,69,5,178,320,24,125,294,68,70,98,141,16,252,21,231,300,63,243]",-8,-7,1,0,0,0,106,106,43,1,,,,,,,,,,,,,,,,,,,,,,,
,,,,,,,,,,,,,,,,,,,,,,,,,,,,,,,,,,,,,,,,,,,5e3c601a8134d004b0ed397a,5fe2f7b75474cdf127f4655a,2020-12-23_07h55.00.550,FlowerSimilarity_Experiment,2020.1.2,Win32,60,5fe17d4a51f3a9c1a60f9869,,,,,,,,,,,,,,,,,,,7,FF,,2,2.348535,,,,,,,,,,,,,,,,,,,,,,,,,,,,,,,,,,-65,-36,1,0,0,response5disk,1,108,-29,-1,1,0,0,rectangle,-29,-1,1,0,0,6,5,"[291,4,69,5,178,320,24,125,294,68,70,98,141,16,252,21,231,300,63,243]",-29,-1,1,0,0,0,107,107,132,1,,,,,,,,,,,,,,,,,,,,,,,
,,,,,,,,,,,,,,,,,,,,,,,,,,,,,,,,,,,,,,,,,,,5e3c601a8134d004b0ed397a,5fe2f7b75474cdf127f4655a,2020-12-23_07h55.00.550,FlowerSimilarity_Experiment,2020.1.2,Win32,60,5fe17d4a51f3a9c1a60f9869,,,,,,,,,,,,,,,,,,,5,FF,,2,1.38033,,,,,,,,,,,,,,,,,,,,,,,,,,,,,,,,,,-90.99993896,-42,1,0,0,response5disk,1,109,-21.99993896,6,1,0,0,rectangle,-21.99993896,6,1,0,0,6,5,"[291,4,69,5,178,320,24,125,294,68,70,98,141,16,252,21,231,300,63,243]",-21.99993896,6,1,0,0,0,108,108,131,1,,,,,,,,,,,,,,,,,,,,,,,
,,,,,,,,,,,,,,,,,,,,,,,,,,,,,,,,,,,,,,,,,,,5e3c601a8134d004b0ed397a,5fe2f7b75474cdf127f4655a,2020-12-23_07h55.00.550,FlowerSimilarity_Experiment,2020.1.2,Win32,60,5fe17d4a51f3a9c1a60f9869,,,,,,,,,,,,,,,,,,,6,FF,,5,3.237625,,,,,,,,,,,,,,,,,,,,,,,,,,,,,,,,,,75,-36,1,0,0,response3disk,4,110,-12,9,1,0,0,rectangle,-12,9,1,0,0,6,7,"[291,4,69,5,178,320,24,125,294,68,70,98,141,16,252,21,231,300,63,243]",-12,9,1,0,0,0,109,109,56,1,,,,,,,,,,,,,,,,,,,,,,,
,,,,,,,,,,,,,,,,,,,,,,,,,,,,,,,,,,,,,,,,,,,5e3c601a8134d004b0ed397a,5fe2f7b75474cdf127f4655a,2020-12-23_07h55.00.550,FlowerSimilarity_Experiment,2020.1.2,Win32,60,5fe17d4a51f3a9c1a60f9869,,,,,,,,,,,,,,,,,,,8,FF,,1,2.13134,,,,,,,,,,,,,,,,,,,,,,,,,,,,,,,,,,-111.999939,43.99996948,1,0,0,response7disk,6,111,-33.99993896,0,1,0,0,rectangle,-33.99993896,0,1,0,0,6,1,"[291,4,69,5,178,320,24,125,294,68,70,98,141,16,252,21,231,300,63,243]",-33.99993896,0,1,0,0,0,110,110,37,1,,,,,,,,,,,,,,,,,,,,,,,
,,,,,,,,,,,,,,,,,,,,,,,,,,,,,,,,,,,,,,,,,,,5e3c601a8134d004b0ed397a,5fe2f7b75474cdf127f4655a,2020-12-23_07h55.00.550,FlowerSimilarity_Experiment,2020.1.2,Win32,60,5fe17d4a51f3a9c1a60f9869,,,,,,,,,,,,,,,,,,,4,FF,,4,1.70162,,,,,,,,,,,,,,,,,,,,,,,,,,,,,,,,,,36,-88,1,0,0,response3disk,7,112,-3.999938965,4,1,0,0,rectangle,-3.999938965,4,1,0,0,6,7,"[291,4,69,5,178,320,24,125,294,68,70,98,141,16,252,21,231,300,63,243]",-3.999938965,4,1,0,0,0,111,111,87,1,,,,,,,,,,,,,,,,,,,,,,,
,,,,,,,,,,,,,,,,,,,,,,,,,,,,,,,,,,,,,,,,,,,5e3c601a8134d004b0ed397a,5fe2f7b75474cdf127f4655a,2020-12-23_07h55.00.550,FlowerSimilarity_Experiment,2020.1.2,Win32,60,5fe17d4a51f3a9c1a60f9869,,,,,,,,,,,,,,,,,,,5,PF,,0,1.27956,,,,,,,,,,,,,,,,,,,,,,,,,,,,,,,,,,-50,88.99996948,1,0,0,response7disk,5,113,-14,1,1,0,0,rectangle,-14,1,1,0,0,6,1,"[291,4,69,5,178,320,24,125,294,68,70,98,141,16,252,21,231,300,63,243]",-14,1,1,0,0,0,112,112,94,1,,,,,,,,,,,,,,,,,,,,,,,
,,,,,,,,,,,,,,,,,,,,,,,,,,,,,,,,,,,,,,,,,,,5e3c601a8134d004b0ed397a,5fe2f7b75474cdf127f4655a,2020-12-23_07h55.00.550,FlowerSimilarity_Experiment,2020.1.2,Win32,60,5fe17d4a51f3a9c1a60f9869,,,,,,,,,,,,,,,,,,,7,FF,,5,2.21503,,,,,,,,,,,,,,,,,,,,,,,,,,,,,,,,,,65,-37,1,0,0,response3disk,2,114,11.00006104,2,1,0,0,rectangle,11.00006104,2,1,0,0,6,7,"[291,4,69,5,178,320,24,125,294,68,70,98,141,16,252,21,231,300,63,243]",11.00006104,2,1,0,0,0,113,113,138,1,,,,,,,,,,,,,,,,,,,,,,,
,,,,,,,,,,,,,,,,,,,,,,,,,,,,,,,,,,,,,,,,,,,5e3c601a8134d004b0ed397a,5fe2f7b75474cdf127f4655a,2020-12-23_07h55.00.550,FlowerSimilarity_Experiment,2020.1.2,Win32,60,5fe17d4a51f3a9c1a60f9869,,,,,,,,,,,,,,,,,,,6,PF,,4,1.23744,,,,,,,,,,,,,,,,,,,,,,,,,,,,,,,,,,46,-75,1,0,0,response3disk,1,115,-0.999938965,11,1,0,0,rectangle,-0.999938965,11,1,0,0,6,7,"[291,4,69,5,178,320,24,125,294,68,70,98,141,16,252,21,231,300,63,243]",-0.999938965,11,1,0,0,0,114,114,46,1,,,,,,,,,,,,,,,,,,,,,,,
,,,,,,,,,,,,,,,,,,,,,,,,,,,,,,,,,,,,,,,,,,,5e3c601a8134d004b0ed397a,5fe2f7b75474cdf127f4655a,2020-12-23_07h55.00.550,FlowerSimilarity_Experiment,2020.1.2,Win32,60,5fe17d4a51f3a9c1a60f9869,,,,,,,,,,,,,,,,,,,5,PF,,3,1.40358,,,,,,,,,,,,,,,,,,,,,,,,,,,,,,,,,,-30.99993896,-101,1,0,0,response5disk,4,116,8.000061035,-9,1,0,0,rectangle,8.000061035,-9,1,0,0,6,4,"[291,4,69,5,178,320,24,125,294,68,70,98,141,16,252,21,231,300,63,243]",8.000061035,-9,1,0,0,0,115,115,54,1,,,,,,,,,,,,,,,,,,,,,,,
,,,,,,,,,,,,,,,,,,,,,,,,,,,,,,,,,,,,,,,,,,,5e3c601a8134d004b0ed397a,5fe2f7b75474cdf127f4655a,2020-12-23_07h55.00.550,FlowerSimilarity_Experiment,2020.1.2,Win32,60,5fe17d4a51f3a9c1a60f9869,,,,,,,,,,,,,,,,,,,4,PF,,3,1.33937,,,,,,,,,,,,,,,,,,,,,,,,,,,,,,,,,,-33,-101,1,0,0,response5disk,2,117,0,-3,1,0,0,rectangle,0,-3,1,0,0,6,4,"[291,4,69,5,178,320,24,125,294,68,70,98,141,16,252,21,231,300,63,243]",0,-3,1,0,0,0,116,116,108,1,,,,,,,,,,,,,,,,,,,,,,,
,,,,,,,,,,,,,,,,,,,,,,,,,,,,,,,,,,,,,,,,,,,5e3c601a8134d004b0ed397a,5fe2f7b75474cdf127f4655a,2020-12-23_07h55.00.550,FlowerSimilarity_Experiment,2020.1.2,Win32,60,5fe17d4a51f3a9c1a60f9869,,,,,,,,,,,,,,,,,,,5,PF,,2,1.965985,,,,,,,,,,,,,,,,,,,,,,,,,,,,,,,,,,-84,-56,1,0,0,response5disk,2,118,-29,-3,1,0,0,rectangle,-29,-3,1,0,0,6,5,"[291,4,69,5,178,320,24,125,294,68,70,98,141,16,252,21,231,300,63,243]",-29,-3,1,0,0,0,117,117,129,1,,,,,,,,,,,,,,,,,,,,,,,
,,,,,,,,,,,,,,,,,,,,,,,,,,,,,,,,,,,,,,,,,,,5e3c601a8134d004b0ed397a,5fe2f7b75474cdf127f4655a,2020-12-23_07h55.00.550,FlowerSimilarity_Experiment,2020.1.2,Win32,60,5fe17d4a51f3a9c1a60f9869,,,,,,,,,,,,,,,,,,,5,PF,,4,1.601235,,,,,,,,,,,,,,,,,,,,,,,,,,,,,,,,,,43,-95,1,0,0,response3disk,3,119,-0.999938965,1,1,0,0,rectangle,-0.999938965,1,1,0,0,6,6,"[291,4,69,5,178,320,24,125,294,68,70,98,141,16,252,21,231,300,63,243]",-0.999938965,1,1,0,0,0,118,118,109,1,,,,,,,,,,,,,,,,,,,,,,,
,,,,,,,,,,,,,,,,,,,,,,,,,,,,,,,,,,,,,,,,,,,5e3c601a8134d004b0ed397a,5fe2f7b75474cdf127f4655a,2020-12-23_07h55.00.550,FlowerSimilarity_Experiment,2020.1.2,Win32,60,5fe17d4a51f3a9c1a60f9869,,,,,,,,,,,,,,,,,,,9,FF,,5,2.38181,,,,,,,,,,,,,,,,,,,,,,,,,,,,,,,,,,92,-35,1,0,0,response3disk,8,120,0,-14,1,0,0,rectangle,0,-14,1,0,0,6,0,"[291,4,69,5,178,320,24,125,294,68,70,98,141,16,252,21,231,300,63,243]",0,-14,1,0,0,0,119,119,6,1,,,,,,,,,,,,,,,,,,,,,,,
,,,,,,,,,,,,,,,,,,,,,,,,,,,,,,,,,,,,,,,,,,,5e3c601a8134d004b0ed397a,5fe2f7b75474cdf127f4655a,2020-12-23_07h55.00.550,FlowerSimilarity_Experiment,2020.1.2,Win32,60,5fe17d4a51f3a9c1a60f9869,,,,,,,,,,,,,,,,,,,2,FF,,4,3.38077,,,,,,,,,,,,,,,,,,,,,,,,,,,,,,,,,,33,-90,1,0,0,response3disk,5,121,4,-11,1,0,0,rectangle,4,-11,1,0,0,6,3,"[291,4,69,5,178,320,24,125,294,68,70,98,141,16,252,21,231,300,63,243]",4,-11,1,0,0,0,120,120,80,1,,,,,,,,,,,,,,,,,,,,,,,
,,,,,,,,,,,,,,,,,,,,,,,,,,,,,,,,,,,,,,,,,,,5e3c601a8134d004b0ed397a,5fe2f7b75474cdf127f4655a,2020-12-23_07h55.00.550,FlowerSimilarity_Experiment,2020.1.2,Win32,60,5fe17d4a51f3a9c1a60f9869,,,,,,,,,,,,,,,,,,,3,PF,,6,1.88672,,,,,,,,,,,,,,,,,,,,,,,,,,,,,,,,,,93,36,1,0,0,response1disk,5,122,-3.999938965,5,1,0,0,rectangle,-3.999938965,5,1,0,0,6,3,"[291,4,69,5,178,320,24,125,294,68,70,98,141,16,252,21,231,300,63,243]",-3.999938965,5,1,0,0,0,121,121,66,1,,,,,,,,,,,,,,,,,,,,,,,
,,,,,,,,,,,,,,,,,,,,,,,,,,,,,,,,,,,,,,,,,,,5e3c601a8134d004b0ed397a,5fe2f7b75474cdf127f4655a,2020-12-23_07h55.00.550,FlowerSimilarity_Experiment,2020.1.2,Win32,60,5fe17d4a51f3a9c1a60f9869,,,,,,,,,,,,,,,,,,,8,FF,,7,2.38512,,,,,,,,,,,,,,,,,,,,,,,,,,,,,,,,,,51,91,1,0,0,response1disk,1,123,-12,1,1,0,0,rectangle,-12,1,1,0,0,6,1,"[291,4,69,5,178,320,24,125,294,68,70,98,141,16,252,21,231,300,63,243]",-12,1,1,0,0,0,122,122,20,1,,,,,,,,,,,,,,,,,,,,,,,
,,,,,,,,,,,,,,,,,,,,,,,,,,,,,,,,,,,,,,,,,,,5e3c601a8134d004b0ed397a,5fe2f7b75474cdf127f4655a,2020-12-23_07h55.00.550,FlowerSimilarity_Experiment,2020.1.2,Win32,60,5fe17d4a51f3a9c1a60f9869,,,,,,,,,,,,,,,,,,,3,FF,,5,1.50092,,,,,,,,,,,,,,,,,,,,,,,,,,,,,,,,,,81,-34,1,0,0,response3disk,7,124,-11,6,1,0,0,rectangle,-11,6,1,0,0,6,4,"[291,4,69,5,178,320,24,125,294,68,70,98,141,16,252,21,231,300,63,243]",-11,6,1,0,0,0,123,123,118,1,,,,,,,,,,,,,,,,,,,,,,,
,,,,,,,,,,,,,,,,,,,,,,,,,,,,,,,,,,,,,,,,,,,5e3c601a8134d004b0ed397a,5fe2f7b75474cdf127f4655a,2020-12-23_07h55.00.550,FlowerSimilarity_Experiment,2020.1.2,Win32,60,5fe17d4a51f3a9c1a60f9869,,,,,,,,,,,,,,,,,,,1,FF,,5,2.38372,,,,,,,,,,,,,,,,,,,,,,,,,,,,,,,,,,89,-59,1,0,0,response3disk,2,125,-6,-7,1,0,0,rectangle,96,64.99996948,1,0,0,6,6,"[291,4,69,5,178,320,24,125,294,68,70,98,141,16,252,21,231,300,63,243]",20.00006104,-7,1,0,0,0,124,124,2,1,response1disk_3,rectangle,,,,,,,,,,,,,,,,,,,,,
,,,,,,,,,,,,,,,,,,,,,,,,,,,,,,,,,,,,,,,,,,,5e3c601a8134d004b0ed397a,5fe2f7b75474cdf127f4655a,2020-12-23_07h55.00.550,FlowerSimilarity_Experiment,2020.1.2,Win32,60,5fe17d4a51f3a9c1a60f9869,,,,,,,,,,,,,,,,,,,3,PF,,6,1.81619,,,,,,,,,,,,,,,,,,,,,,,,,,,,,,,,,,98,43.99996948,1,0,0,response1disk,4,126,8.000061035,19,1,0,0,rectangle,8.000061035,19,1,0,0,6,0,"[291,4,69,5,178,320,24,125,294,68,70,98,141,16,252,21,231,300,63,243]",8.000061035,19,1,0,0,0,125,125,30,1,,,,,,,,,,,,,,,,,,,,,,,
,,,,,,,,,,,,,,,,,,,,,,,,,,,,,,,,,,,,,,,,,,,5e3c601a8134d004b0ed397a,5fe2f7b75474cdf127f4655a,2020-12-23_07h55.00.550,FlowerSimilarity_Experiment,2020.1.2,Win32,60,5fe17d4a51f3a9c1a60f9869,,,,,,,,,,,,,,,,,,,9,PF,,5,1.722905,,,,,,,,,,,,,,,,,,,,,,,,,,,,,,,,,,74,-60,1,0,0,response3disk,1,127,-36.99993896,-6,1,0,0,rectangle,-36.99993896,-6,1,0,0,6,5,"[291,4,69,5,178,320,24,125,294,68,70,98,141,16,252,21,231,300,63,243]",-36.99993896,-6,1,0,0,0,126,126,74,1,,,,,,,,,,,,,,,,,,,,,,,
,,,,,,,,,,,,,,,,,,,,,,,,,,,,,,,,,,,,,,,,,,,5e3c601a8134d004b0ed397a,5fe2f7b75474cdf127f4655a,2020-12-23_07h55.00.550,FlowerSimilarity_Experiment,2020.1.2,Win32,60,5fe17d4a51f3a9c1a60f9869,,,,,,,,,,,,,,,,,,,9,FF,,7,1.831425,,,,,,,,,,,,,,,,,,,,,,,,,,,,,,,,,,27,108,1,0,0,response1disk,7,128,6,3,1,0,0,rectangle,6,3,1,0,0,6,6,"[291,4,69,5,178,320,24,125,294,68,70,98,141,16,252,21,231,300,63,243]",6,3,1,0,0,0,127,127,100,1,,,,,,,,,,,,,,,,,,,,,,,
,,,,,,,,,,,,,,,,,,,,,,,,,,,,,,,,,,,,,,,,,,,5e3c601a8134d004b0ed397a,5fe2f7b75474cdf127f4655a,2020-12-23_07h55.00.550,FlowerSimilarity_Experiment,2020.1.2,Win32,60,5fe17d4a51f3a9c1a60f9869,,,,,,,,,,,,,,,,,,,3,FF,,5,2.08114,,,,,,,,,,,,,,,,,,,,,,,,,,,,,,,,,,86,-41,1,0,0,response3disk,2,129,37,-14,1,0,0,rectangle,37,-14,1,0,0,5,6,"[291,4,69,5,178,320,24,125,294,68,70,98,141,16,252,21,231,300,63,243]",37,-14,1,0,0,0,128,128,93,1,,,,,,,,,,,,,,,,,,,,,,,
,,,,,,,,,,,,,,,,,,,,,,,,,,,,,,,,,,,,,,,,,,,5e3c601a8134d004b0ed397a,5fe2f7b75474cdf127f4655a,2020-12-23_07h55.00.550,FlowerSimilarity_Experiment,2020.1.2,Win32,60,5fe17d4a51f3a9c1a60f9869,,,,,,,,,,,,,,,,,,,1,FF,,7,1.61568,,,,,,,,,,,,,,,,,,,,,,,,,,,,,,,,,,45,103,1,0,0,response1disk,6,130,10,3,1,0,0,rectangle,10,3,1,0,0,5,7,"[291,4,69,5,178,320,24,125,294,68,70,98,141,16,252,21,231,300,63,243]",10,3,1,0,0,0,129,129,58,1,,,,,,,,,,,,,,,,,,,,,,,
,,,,,,,,,,,,,,,,,,,,,,,,,,,,,,,,,,,,,,,,,,,5e3c601a8134d004b0ed397a,5fe2f7b75474cdf127f4655a,2020-12-23_07h55.00.550,FlowerSimilarity_Experiment,2020.1.2,Win32,60,5fe17d4a51f3a9c1a60f9869,,,,,,,,,,,,,,,,,,,6,FF,,6,1.465015,,,,,,,,,,,,,,,,,,,,,,,,,,,,,,,,,,72,40.99996948,1,0,0,response1disk,3,131,3,10,1,0,0,rectangle,3,10,1,0,0,5,2,"[291,4,69,5,178,320,24,125,294,68,70,98,141,16,252,21,231,300,63,243]",3,10,1,0,0,0,130,130,21,1,,,,,,,,,,,,,,,,,,,,,,,
,,,,,,,,,,,,,,,,,,,,,,,,,,,,,,,,,,,,,,,,,,,5e3c601a8134d004b0ed397a,5fe2f7b75474cdf127f4655a,2020-12-23_07h55.00.550,FlowerSimilarity_Experiment,2020.1.2,Win32,60,5fe17d4a51f3a9c1a60f9869,,,,,,,,,,,,,,,,,,,1,PF,,5,2.503965,,,,,,,,,,,,,,,,,,,,,,,,,,,,,,,,,,94,-48,1,0,0,response3disk,2,132,2.000061035,10,1,0,0,rectangle,2.000061035,10,1,0,0,5,1,"[291,4,69,5,178,320,24,125,294,68,70,98,141,16,252,21,231,300,63,243]",2.000061035,10,1,0,0,0,131,131,24,1,,,,,,,,,,,,,,,,,,,,,,,
,,,,,,,,,,,,,,,,,,,,,,,,,,,,,,,,,,,,,,,,,,,5e3c601a8134d004b0ed397a,5fe2f7b75474cdf127f4655a,2020-12-23_07h55.00.550,FlowerSimilarity_Experiment,2020.1.2,Win32,60,5fe17d4a51f3a9c1a60f9869,,,,,,,,,,,,,,,,,,,7,FF,,7,1.939205,,,,,,,,,,,,,,,,,,,,,,,,,,,,,,,,,,27,75,1,0,0,response1disk,6,133,8.000061035,-5,1,0,0,rectangle,8.000061035,-5,1,0,0,5,5,"[291,4,69,5,178,320,24,125,294,68,70,98,141,16,252,21,231,300,63,243]",8.000061035,-5,1,0,0,0,132,132,31,1,,,,,,,,,,,,,,,,,,,,,,,
,,,,,,,,,,,,,,,,,,,,,,,,,,,,,,,,,,,,,,,,,,,5e3c601a8134d004b0ed397a,5fe2f7b75474cdf127f4655a,2020-12-23_07h55.00.550,FlowerSimilarity_Experiment,2020.1.2,Win32,60,5fe17d4a51f3a9c1a60f9869,,,,,,,,,,,,,,,,,,,6,PF,,6,2.304155,,,,,,,,,,,,,,,,,,,,,,,,,,,,,,,,,,103,31.99996948,1,0,0,response1disk,8,134,-9.999938965,2,1,0,0,rectangle,-9.999938965,2,1,0,0,5,7,"[291,4,69,5,178,320,24,125,294,68,70,98,141,16,252,21,231,300,63,243]",-9.999938965,2,1,0,0,0,133,133,64,1,,,,,,,,,,,,,,,,,,,,,,,
,,,,,,,,,,,,,,,,,,,,,,,,,,,,,,,,,,,,,,,,,,,5e3c601a8134d004b0ed397a,5fe2f7b75474cdf127f4655a,2020-12-23_07h55.00.550,FlowerSimilarity_Experiment,2020.1.2,Win32,60,5fe17d4a51f3a9c1a60f9869,,,,,,,,,,,,,,,,,,,3,FF,,6,1.77048,,,,,,,,,,,,,,,,,,,,,,,,,,,,,,,,,,66,64,1,0,0,response1disk,5,135,17.00006104,-6,1,0,0,rectangle,17.00006104,-6,1,0,0,5,3,"[291,4,69,5,178,320,24,125,294,68,70,98,141,16,252,21,231,300,63,243]",17.00006104,-6,1,0,0,0,134,134,101,1,,,,,,,,,,,,,,,,,,,,,,,
,,,,,,,,,,,,,,,,,,,,,,,,,,,,,,,,,,,,,,,,,,,5e3c601a8134d004b0ed397a,5fe2f7b75474cdf127f4655a,2020-12-23_07h55.00.550,FlowerSimilarity_Experiment,2020.1.2,Win32,60,5fe17d4a51f3a9c1a60f9869,,,,,,,,,,,,,,,,,,,2,FF,,5,1.68802,,,,,,,,,,,,,,,,,,,,,,,,,,,,,,,,,,68,-46,1,0,0,response3disk,7,136,-9,4,1,0,0,rectangle,-9,4,1,0,0,5,4,"[291,4,69,5,178,320,24,125,294,68,70,98,141,16,252,21,231,300,63,243]",-9,4,1,0,0,0,135,135,63,1,,,,,,,,,,,,,,,,,,,,,,,
,,,,,,,,,,,,,,,,,,,,,,,,,,,,,,,,,,,,,,,,,,,5e3c601a8134d004b0ed397a,5fe2f7b75474cdf127f4655a,2020-12-23_07h55.00.550,FlowerSimilarity_Experiment,2020.1.2,Win32,60,5fe17d4a51f3a9c1a60f9869,,,,,,,,,,,,,,,,,,,1,PF,,4,1.257565,,,,,,,,,,,,,,,,,,,,,,,,,,,,,,,,,,25,-78,1,0,0,response3disk,3,137,-21,-3,1,0,0,rectangle,-21,-3,1,0,0,5,0,"[291,4,69,5,178,320,24,125,294,68,70,98,141,16,252,21,231,300,63,243]",-21,-3,1,0,0,0,136,136,1,1,,,,,,,,,,,,,,,,,,,,,,,
,,,,,,,,,,,,,,,,,,,,,,,,,,,,,,,,,,,,,,,,,,,5e3c601a8134d004b0ed397a,5fe2f7b75474cdf127f4655a,2020-12-23_07h55.00.550,FlowerSimilarity_Experiment,2020.1.2,Win32,60,5fe17d4a51f3a9c1a60f9869,,,,,,,,,,,,,,,,,,,2,PF,,5,2.015455,,,,,,,,,,,,,,,,,,,,,,,,,,,,,,,,,,87,-25,1,0,0,response3disk,3,138,-5,16,1,0,0,rectangle,-5,16,1,0,0,5,6,"[291,4,69,5,178,320,24,125,294,68,70,98,141,16,252,21,231,300,63,243]",-5,16,1,0,0,0,137,137,69,1,,,,,,,,,,,,,,,,,,,,,,,
,,,,,,,,,,,,,,,,,,,,,,,,,,,,,,,,,,,,,,,,,,,5e3c601a8134d004b0ed397a,5fe2f7b75474cdf127f4655a,2020-12-23_07h55.00.550,FlowerSimilarity_Experiment,2020.1.2,Win32,60,5fe17d4a51f3a9c1a60f9869,,,,,,,,,,,,,,,,,,,9,FF,,6,2.13379,,,,,,,,,,,,,,,,,,,,,,,,,,,,,,,,,,72,49,1,0,0,response1disk,3,139,-12.99993896,-6,1,0,0,rectangle,-12.99993896,-6,1,0,0,5,1,"[291,4,69,5,178,320,24,125,294,68,70,98,141,16,252,21,231,300,63,243]",-12.99993896,-6,1,0,0,0,138,138,141,1,,,,,,,,,,,,,,,,,,,,,,,
,,,,,,,,,,,,,,,,,,,,,,,,,,,,,,,,,,,,,,,,,,,5e3c601a8134d004b0ed397a,5fe2f7b75474cdf127f4655a,2020-12-23_07h55.00.550,FlowerSimilarity_Experiment,2020.1.2,Win32,60,5fe17d4a51f3a9c1a60f9869,,,,,,,,,,,,,,,,,,,4,PF,,7,1.540055,,,,,,,,,,,,,,,,,,,,,,,,,,,,,,,,,,52,97,1,0,0,response1disk,6,140,0,6,1,0,0,rectangle,0,6,1,0,0,5,4,"[291,4,69,5,178,320,24,125,294,68,70,98,141,16,252,21,231,300,63,243]",0,6,1,0,0,0,139,139,120,1,,,,,,,,,,,,,,,,,,,,,,,
,,,,,,,,,,,,,,,,,,,,,,,,,,,,,,,,,,,,,,,,,,,5e3c601a8134d004b0ed397a,5fe2f7b75474cdf127f4655a,2020-12-23_07h55.00.550,FlowerSimilarity_Experiment,2020.1.2,Win32,60,5fe17d4a51f3a9c1a60f9869,,,,,,,,,,,,,,,,,,,5,PF,,7,1.55767,,,,,,,,,,,,,,,,,,,,,,,,,,,,,,,,,,55,85,1,0,0,response1disk,6,141,-17,-7,1,0,0,rectangle,-96.99993896,49.99996948,1,0,0,1,1,"[291,4,69,5,178,320,24,125,294,68,70,98,141,16,252,21,231,300,63,243]",4,-4,1,0,0,0,140,140,103,1,response7disk_3,rectangle,,,,,,,,,,,,,,,,,,,,,
,,,,,,,,,,,,,,,,,,,,,,,,,,,,,,,,,,,,,,,,,,,5e3c601a8134d004b0ed397a,5fe2f7b75474cdf127f4655a,2020-12-23_07h55.00.550,FlowerSimilarity_Experiment,2020.1.2,Win32,60,5fe17d4a51f3a9c1a60f9869,,,,,,,,,,,,,,,,,,,3,PF,,6,2.80578,,,,,,,,,,,,,,,,,,,,,,,,,,,,,,,,,,94,49.99996948,1,0,0,response1disk,9,142,2.000061035,8,1,0,0,rectangle,2.000061035,8,1,0,0,1,4,"[291,4,69,5,178,320,24,125,294,68,70,98,141,16,252,21,231,300,63,243]",2.000061035,8,1,0,0,0,141,141,79,1,,,,,,,,,,,,,,,,,,,,,,,
,,,,,,,,,,,,,,,,,,,,,,,,,,,,,,,,,,,,,,,,,,,5e3c601a8134d004b0ed397a,5fe2f7b75474cdf127f4655a,2020-12-23_07h55.00.550,FlowerSimilarity_Experiment,2020.1.2,Win32,60,5fe17d4a51f3a9c1a60f9869,,,,,,,,,,,,,,,,,,,4,FF,,5,2.19221,,,,,,,,,,,,,,,,,,,,,,,,,,,,,,,,,,59.00006104,-31,1,0,0,response3disk,1,143,-12,10,1,0,0,rectangle,-12,10,1,0,0,1,1,"[291,4,69,5,178,320,24,125,294,68,70,98,141,16,252,21,231,300,63,243]",-12,10,1,0,0,0,142,142,102,1,,,,,,,,,,,,,,,,,,,,,,,
,,,,,,,,,,,,,,,,,,,,,,,,,,,,,,,,,,,,,,,,,,,5e3c601a8134d004b0ed397a,5fe2f7b75474cdf127f4655a,2020-12-23_07h55.00.550,FlowerSimilarity_Experiment,2020.1.2,Win32,60,5fe17d4a51f3a9c1a60f9869,,,,,,,,,,,,,,,,,,,2,PF,,2,1.94844,,,,,,,,,,,,,,,,,,,,,,,,,,,,,,,,,,-69,-32,1,0,0,response5disk,9,144,-27,4,1,0,0,rectangle,-27,4,1,0,0,1,5,"[291,4,69,5,178,320,24,125,294,68,70,98,141,16,252,21,231,300,63,243]",-27,4,1,0,0,0,143,143,39,1,,,,,,,,,,,,,,,,,,,,,,,
,,,,,,,,,,,,,,,,,,,,,,,,,,,,,,,,,,,,,,,,,,,5e3c601a8134d004b0ed397a,5fe2f7b75474cdf127f4655a,2020-12-23_07h55.00.550,FlowerSimilarity_Experiment,2020.1.2,Win32,60,5fe17d4a51f3a9c1a60f9869,,,,,,,,,,,,,,,,,,,9,PF,,4,1.352935,,,,,,,,,,,,,,,,,,,,,,,,,,,,,,,,,,60,-78,1,0,0,response3disk,3,145,13,-13,1,0,0,rectangle,13,-13,1,0,0,1,0,"[291,4,69,5,178,320,24,125,294,68,70,98,141,16,252,21,231,300,63,243]",13,-13,1,0,0,0,144,144,119,1,,,,,,,,,,,,,,,,,,,,,,,
,,,,,,,,,,,,,,,,,,,,,,,,,,,,,,,,,,,,,,,,,,,5e3c601a8134d004b0ed397a,5fe2f7b75474cdf127f4655a,2020-12-23_07h55.00.550,FlowerSimilarity_Experiment,2020.1.2,Win32,60,5fe17d4a51f3a9c1a60f9869,,,,,,,,,,,,,,,,,,,4,PF,,5,1.623785,,,,,,,,,,,,,,,,,,,,,,,,,,,,,,,,,,92,-53,1,0,0,response3disk,1,146,-3,-2,1,0,0,rectangle,-3,-2,1,0,0,1,7,"[291,4,69,5,178,320,24,125,294,68,70,98,141,16,252,21,231,300,63,243]",-3,-2,1,0,0,0,145,145,115,1,,,,,,,,,,,,,,,,,,,,,,,
,,,,,,,,,,,,,,,,,,,,,,,,,,,,,,,,,,,,,,,,,,,5e3c601a8134d004b0ed397a,5fe2f7b75474cdf127f4655a,2020-12-23_07h55.00.550,FlowerSimilarity_Experiment,2020.1.2,Win32,60,5fe17d4a51f3a9c1a60f9869,,,,,,,,,,,,,,,,,,,4,FF,,4,1.21701,,,,,,,,,,,,,,,,,,,,,,,,,,,,,,,,,,53.00006104,-100,1,0,0,response3disk,9,147,-12.99993896,-8,1,0,0,rectangle,-12.99993896,-8,1,0,0,1,6,"[291,4,69,5,178,320,24,125,294,68,70,98,141,16,252,21,231,300,63,243]",-12.99993896,-8,1,0,0,0,146,146,90,1,,,,,,,,,,,,,,,,,,,,,,,
,,,,,,,,,,,,,,,,,,,,,,,,,,,,,,,,,,,,,,,,,,,5e3c601a8134d004b0ed397a,5fe2f7b75474cdf127f4655a,2020-12-23_07h55.00.550,FlowerSimilarity_Experiment,2020.1.2,Win32,60,5fe17d4a51f3a9c1a60f9869,,,,,,,,,,,,,,,,,,,8,FF,,7,1.19981,,,,,,,,,,,,,,,,,,,,,,,,,,,,,,,,,,38.00006104,82.99996948,1,0,0,response1disk,4,148,14.00006104,6,1,0,0,rectangle,14.00006104,6,1,0,0,1,3,"[291,4,69,5,178,320,24,125,294,68,70,98,141,16,252,21,231,300,63,243]",14.00006104,6,1,0,0,0,147,147,88,1,,,,,,,,,,,,,,,,,,,,,,,
,,,,,,,,,,,,,,,,,,,,,,,,,,,,,,,,,,,,,,,,,,,5e3c601a8134d004b0ed397a,5fe2f7b75474cdf127f4655a,2020-12-23_07h55.00.550,FlowerSimilarity_Experiment,2020.1.2,Win32,60,5fe17d4a51f3a9c1a60f9869,,,,,,,,,,,,,,,,,,,8,PF,,7,1.93133,,,,,,,,,,,,,,,,,,,,,,,,,,,,,,,,,,49,94.99996948,1,0,0,response1disk,4,149,21,-1,1,0,0,rectangle,21,-1,1,0,0,1,4,"[291,4,69,5,178,320,24,125,294,68,70,98,141,16,252,21,231,300,63,243]",21,-1,1,0,0,0,148,148,78,1,,,,,,,,,,,,,,,,,,,,,,,
,,,,,,,,,,,,,,,,,,,,,,,,,,,,,,,,,,,,,,,,,,,5e3c601a8134d004b0ed397a,5fe2f7b75474cdf127f4655a,2020-12-23_07h55.00.550,FlowerSimilarity_Experiment,2020.1.2,Win32,60,5fe17d4a51f3a9c1a60f9869,,,,,,,,,,,,,,,,,,,1,PF,,7,1.30677,,,,,,,,,,,,,,,,,,,,,,,,,,,,,,,,,,28,97.99996948,1,0,0,response1disk,6,150,25,-3,1,0,0,rectangle,25,-3,1,0,0,1,3,"[291,4,69,5,178,320,24,125,294,68,70,98,141,16,252,21,231,300,63,243]",25,-3,1,0,0,0,149,149,144,1,,,,,,,,,,,,,,,,,,,,,,,
,,,,,,,,,,,,,,,,,,,,,,,,,,,,,,,,,,,,,,,,,,,5e3c601a8134d004b0ed397a,5fe2f7b75474cdf127f4655a,2020-12-23_07h55.00.550,FlowerSimilarity_Experiment,2020.1.2,Win32,60,5fe17d4a51f3a9c1a60f9869,,,,,,,,,,,,,,,,,,,9,FF,,3,2.167155,,,,,,,,,,,,,,,,,,,,,,,,,,,,,,,,,,-33,-97,1,0,0,response5disk,2,151,2.000061035,1,1,0,0,rectangle,2.000061035,1,1,0,0,1,0,"[291,4,69,5,178,320,24,125,294,68,70,98,141,16,252,21,231,300,63,243]",2.000061035,1,1,0,0,0,150,150,11,1,,,,,,,,,,,,,,,,,,,,,,,
,,,,,,,,,,,,,,,,,,,,,,,,,,,,,,,,,,,,,,,,,,,5e3c601a8134d004b0ed397a,5fe2f7b75474cdf127f4655a,2020-12-23_07h55.00.550,FlowerSimilarity_Experiment,2020.1.2,Win32,60,5fe17d4a51f3a9c1a60f9869,,,,,,,,,,,,,,,,,,,9,PF,,1,1.766655,,,,,,,,,,,,,,,,,,,,,,,,,,,,,,,,,,-101,67,1,0,0,response7disk,9,152,11.00006104,-19,1,0,0,rectangle,11.00006104,-19,1,0,0,1,5,"[291,4,69,5,178,320,24,125,294,68,70,98,141,16,252,21,231,300,63,243]",11.00006104,-19,1,0,0,0,151,151,106,1,,,,,,,,,,,,,,,,,,,,,,,
,,,,,,,,,,,,,,,,,,,,,,,,,,,,,,,,,,,,,,,,,,,5e3c601a8134d004b0ed397a,5fe2f7b75474cdf127f4655a,2020-12-23_07h55.00.550,FlowerSimilarity_Experiment,2020.1.2,Win32,60,5fe17d4a51f3a9c1a60f9869,,,,,,,,,,,,,,,,,,,9,FF,,4,1.57129,,,,,,,,,,,,,,,,,,,,,,,,,,,,,,,,,,42,-90,1,0,0,response3disk,5,153,-6.999938965,-11,1,0,0,rectangle,-6.999938965,-11,1,0,0,1,5,"[291,4,69,5,178,320,24,125,294,68,70,98,141,16,252,21,231,300,63,243]",-6.999938965,-11,1,0,0,0,152,152,128,1,,,,,,,,,,,,,,,,,,,,,,,
,,,,,,,,,,,,,,,,,,,,,,,,,,,,,,,,,,,,,,,,,,,5e3c601a8134d004b0ed397a,5fe2f7b75474cdf127f4655a,2020-12-23_07h55.00.550,FlowerSimilarity_Experiment,2020.1.2,Win32,60,5fe17d4a51f3a9c1a60f9869,,,,,,,,,,,,,,,,,,,9,FF,,0,1.35047,,,,,,,,,,,,,,,,,,,,,,,,,,,,,,,,,,-80,96,1,0,0,response7disk,9,154,6,-2,1,0,0,rectangle,6,-2,1,0,0,1,3,"[291,4,69,5,178,320,24,125,294,68,70,98,141,16,252,21,231,300,63,243]",6,-2,1,0,0,0,153,153,17,1,,,,,,,,,,,,,,,,,,,,,,,
,,,,,,,,,,,,,,,,,,,,,,,,,,,,,,,,,,,,,,,,,,,5e3c601a8134d004b0ed397a,5fe2f7b75474cdf127f4655a,2020-12-23_07h55.00.550,FlowerSimilarity_Experiment,2020.1.2,Win32,60,5fe17d4a51f3a9c1a60f9869,,,,,,,,,,,,,,,,,,,7,FF,,3,3.4465,,,,,,,,,,,,,,,,,,,,,,,,,,,,,,,,,,-45,-83,1,0,0,response5disk,8,155,-6,8,1,0,0,rectangle,-6,8,1,0,0,1,7,"[291,4,69,5,178,320,24,125,294,68,70,98,141,16,252,21,231,300,63,243]",-6,8,1,0,0,0,154,154,97,1,,,,,,,,,,,,,,,,,,,,,,,
,,,,,,,,,,,,,,,,,,,,,,,,,,,,,,,,,,,,,,,,,,,5e3c601a8134d004b0ed397a,5fe2f7b75474cdf127f4655a,2020-12-23_07h55.00.550,FlowerSimilarity_Experiment,2020.1.2,Win32,60,5fe17d4a51f3a9c1a60f9869,,,,,,,,,,,,,,,,,,,6,PF,,5,2.82091,,,,,,,,,,,,,,,,,,,,,,,,,,,,,,,,,,67,-28,1,0,0,response3disk,4,156,-9.999938965,19,1,0,0,rectangle,-9.999938965,19,1,0,0,1,3,"[291,4,69,5,178,320,24,125,294,68,70,98,141,16,252,21,231,300,63,243]",-9.999938965,19,1,0,0,0,155,155,33,1,,,,,,,,,,,,,,,,,,,,,,,
,,,,,,,,,,,,,,,,,,,,,,,,,,,,,,,,,,,,,,,,,,,5e3c601a8134d004b0ed397a,5fe2f7b75474cdf127f4655a,2020-12-23_07h55.00.550,FlowerSimilarity_Experiment,2020.1.2,Win32,60,5fe17d4a51f3a9c1a60f9869,,,,,,,,,,,,,,,,,,,4,FF,,4,1.65637,,,,,,,,,,,,,,,,,,,,,,,,,,,,,,,,,,27,-113,1,0,0,response3disk,2,157,13,-4,1,0,0,rectangle,13,-4,1,0,0,1,1,"[291,4,69,5,178,320,24,125,294,68,70,98,141,16,252,21,231,300,63,243]",13,-4,1,0,0,0,156,156,13,1,,,,,,,,,,,,,,,,,,,,,,,
,,,,,,,,,,,,,,,,,,,,,,,,,,,,,,,,,,,,,,,,,,,5e3c601a8134d004b0ed397a,5fe2f7b75474cdf127f4655a,2020-12-23_07h55.00.550,FlowerSimilarity_Experiment,2020.1.2,Win32,60,5fe17d4a51f3a9c1a60f9869,,,,,,,,,,,,,,,,,,,6,FF,,7,1.1161,,,,,,,,,,,,,,,,,,,,,,,,,,,,,,,,,,28,109,1,0,0,response1disk,1,158,-14,11,1,0,0,rectangle,-14,11,1,0,0,1,4,"[291,4,69,5,178,320,24,125,294,68,70,98,141,16,252,21,231,300,63,243]",-14,11,1,0,0,0,157,157,5,1,,,,,,,,,,,,,,,,,,,,,,,
,,,,,,,,,,,,,,,,,,,,,,,,,,,,,,,,,,,,,,,,,,,5e3c601a8134d004b0ed397a,5fe2f7b75474cdf127f4655a,2020-12-23_07h55.00.550,FlowerSimilarity_Experiment,2020.1.2,Win32,60,5fe17d4a51f3a9c1a60f9869,,,,,,,,,,,,,,,,,,,5,PF,,3,2.071615,,,,,,,,,,,,,,,,,,,,,,,,,,,,,,,,,,-42,-80,1,0,0,response5disk,1,159,-8,3,1,0,0,rectangle,-8,3,1,0,0,1,5,"[291,4,69,5,178,320,24,125,294,68,70,98,141,16,252,21,231,300,63,243]",-8,3,1,0,0,0,158,158,159,1,,,,,,,,,,,,,,,,,,,,,,,
,,,,,,,,,,,,,,,,,,,,,,,,,,,,,,,,,,,,,,,,,,,5e3c601a8134d004b0ed397a,5fe2f7b75474cdf127f4655a,2020-12-23_07h55.00.550,FlowerSimilarity_Experiment,2020.1.2,Win32,60,5fe17d4a51f3a9c1a60f9869,,,,,,,,,,,,,,,,,,,9,PF,,5,2.289115,,,,,,,,,,,,,,,,,,,,,,,,,,,,,,,,,,74,-35,1,0,0,response3disk,5,160,1,2,1,0,0,rectangle,1,2,1,0,0,1,7,"[291,4,69,5,178,320,24,125,294,68,70,98,141,16,252,21,231,300,63,243]",1,2,1,0,0,0,159,159,134,1,,,,,,,,,,,,,,,,,,,,,,,
,,,,,,,,,,,,,,,,,,,,,,,,,,,,,,,,,,,,,,,,,,,5e3c601a8134d004b0ed397a,5fe2f7b75474cdf127f4655a,2020-12-23_07h55.00.550,FlowerSimilarity_Experiment,2020.1.2,Win32,60,5fe17d4a51f3a9c1a60f9869,,,,,,,,,,,,,,,,,,,2,PF,,5,2.104685,,,,,,,,,,,,,,,,,,,,,,,,,,,,,,,,,,57,-27,1,0,0,response3disk,4,161,21,-15,1,0,0,rectangle,21,-15,1,0,0,5,7,"[291,4,69,5,178,320,24,125,294,68,70,98,141,16,252,21,231,300,63,243]",21,-15,1,0,0,0,160,160,127,1,,,,,,,,,,,,,,,,,,,,,,,
,,,,,,,,,,,,,,,,,,,,,,,,,,,,,,,,,,,,,,,,,,,5e3c601a8134d004b0ed397a,5fe2f7b75474cdf127f4655a,2020-12-23_07h55.00.550,FlowerSimilarity_Experiment,2020.1.2,Win32,60,5fe17d4a51f3a9c1a60f9869,,,,,,,,,,,,,,,,,,,6,PF,,2,2.03909,,,,,,,,,,,,,,,,,,,,,,,,,,,,,,,,,,-77,-41,1,0,0,response5disk,5,162,-30.99993896,-14,1,0,0,rectangle,-30.99993896,-14,1,0,0,5,4,"[291,4,69,5,178,320,24,125,294,68,70,98,141,16,252,21,231,300,63,243]",-30.99993896,-14,1,0,0,0,161,161,59,1,,,,,,,,,,,,,,,,,,,,,,,
,,,,,,,,,,,,,,,,,,,,,,,,,,,,,,,,,,,,,,,,,,,5e3c601a8134d004b0ed397a,5fe2f7b75474cdf127f4655a,2020-12-23_07h55.00.550,FlowerSimilarity_Experiment,2020.1.2,Win32,60,5fe17d4a51f3a9c1a60f9869,,,,,,,,,,,,,,,,,,,,,,,,,,,,,,,,,,,,,,,,,,,,,,,,,,,,,,,,,,,,,,,,,,,,,,,,,,,,,,,,,,,,,,,,,,,0,0,0,0,1,,,,,,,,,,,,,,,,
,,,,,,,,,,,,,,,,,,,,,,,,,,,,,,,,,,,,,,,,,,,5e3c601a8134d004b0ed397a,5fe2f7b75474cdf127f4655a,2020-12-23_07h55.00.550,FlowerSimilarity_Experiment,2020.1.2,Win32,60,5fe17d4a51f3a9c1a60f9869,,,,,,,,,,,,,,,,,,,7,PF,,0,1.64822,,,,,,,,,,,,,,,,,,,,,,,,,,,,,,,,,,-47,93,1,0,0,response7disk,3,163,3,-5,1,0,0,rectangle,3,-5,1,0,0,5,5,"[291,4,69,5,178,320,24,125,294,68,70,98,141,16,252,21,231,300,63,243]",3,-5,1,0,0,0,0,0,81,1,,,,,,,,,,,,,,,,,,,,,,,
,,,,,,,,,,,,,,,,,,,,,,,,,,,,,,,,,,,,,,,,,,,5e3c601a8134d004b0ed397a,5fe2f7b75474cdf127f4655a,2020-12-23_07h55.00.550,FlowerSimilarity_Experiment,2020.1.2,Win32,60,5fe17d4a51f3a9c1a60f9869,,,,,,,,,,,,,,,,,,,3,PF,,0,1.16644,,,,,,,,,,,,,,,,,,,,,,,,,,,,,,,,,,-29,64.99996948,1,0,0,response7disk,7,164,-5,16,1,0,0,rectangle,-5,16,1,0,0,5,6,"[291,4,69,5,178,320,24,125,294,68,70,98,141,16,252,21,231,300,63,243]",-5,16,1,0,0,0,1,1,41,1,,,,,,,,,,,,,,,,,,,,,,,
,,,,,,,,,,,,,,,,,,,,,,,,,,,,,,,,,,,,,,,,,,,5e3c601a8134d004b0ed397a,5fe2f7b75474cdf127f4655a,2020-12-23_07h55.00.550,FlowerSimilarity_Experiment,2020.1.2,Win32,60,5fe17d4a51f3a9c1a60f9869,,,,,,,,,,,,,,,,,,,5,FF,,2,1.7327,,,,,,,,,,,,,,,,,,,,,,,,,,,,,,,,,,-90,-55,1,0,0,response5disk,9,165,-24.99993896,-3,1,0,0,rectangle,-24.99993896,-3,1,0,0,5,1,"[291,4,69,5,178,320,24,125,294,68,70,98,141,16,252,21,231,300,63,243]",-24.99993896,-3,1,0,0,0,2,2,61,1,,,,,,,,,,,,,,,,,,,,,,,
,,,,,,,,,,,,,,,,,,,,,,,,,,,,,,,,,,,,,,,,,,,5e3c601a8134d004b0ed397a,5fe2f7b75474cdf127f4655a,2020-12-23_07h55.00.550,FlowerSimilarity_Experiment,2020.1.2,Win32,60,5fe17d4a51f3a9c1a60f9869,,,,,,,,,,,,,,,,,,,8,PF,,3,1.74931,,,,,,,,,,,,,,,,,,,,,,,,,,,,,,,,,,-38,-78,1,0,0,response5disk,6,166,-6.999938965,15,1,0,0,rectangle,-6.999938965,15,1,0,0,5,1,"[291,4,69,5,178,320,24,125,294,68,70,98,141,16,252,21,231,300,63,243]",-6.999938965,15,1,0,0,0,3,3,161,1,,,,,,,,,,,,,,,,,,,,,,,
,,,,,,,,,,,,,,,,,,,,,,,,,,,,,,,,,,,,,,,,,,,5e3c601a8134d004b0ed397a,5fe2f7b75474cdf127f4655a,2020-12-23_07h55.00.550,FlowerSimilarity_Experiment,2020.1.2,Win32,60,5fe17d4a51f3a9c1a60f9869,,,,,,,,,,,,,,,,,,,4,PF,,5,1.23477,,,,,,,,,,,,,,,,,,,,,,,,,,,,,,,,,,80,-52,1,0,0,response3disk,7,167,-5,-1,1,0,0,rectangle,-5,-1,1,0,0,5,0,"[291,4,69,5,178,320,24,125,294,68,70,98,141,16,252,21,231,300,63,243]",-5,-1,1,0,0,0,4,4,38,1,,,,,,,,,,,,,,,,,,,,,,,
,,,,,,,,,,,,,,,,,,,,,,,,,,,,,,,,,,,,,,,,,,,5e3c601a8134d004b0ed397a,5fe2f7b75474cdf127f4655a,2020-12-23_07h55.00.550,FlowerSimilarity_Experiment,2020.1.2,Win32,60,5fe17d4a51f3a9c1a60f9869,,,,,,,,,,,,,,,,,,,7,PF,,7,1.48912,,,,,,,,,,,,,,,,,,,,,,,,,,,,,,,,,,46,88,1,0,0,response1disk,6,168,-12,0,1,0,0,rectangle,-12,0,1,0,0,5,0,"[291,4,69,5,178,320,24,125,294,68,70,98,141,16,252,21,231,300,63,243]",-12,0,1,0,0,0,5,5,29,1,,,,,,,,,,,,,,,,,,,,,,,
,,,,,,,,,,,,,,,,,,,,,,,,,,,,,,,,,,,,,,,,,,,5e3c601a8134d004b0ed397a,5fe2f7b75474cdf127f4655a,2020-12-23_07h55.00.550,FlowerSimilarity_Experiment,2020.1.2,Win32,60,5fe17d4a51f3a9c1a60f9869,,,,,,,,,,,,,,,,,,,7,PF,,7,1.738835,,,,,,,,,,,,,,,,,,,,,,,,,,,,,,,,,,42,93,1,0,0,response1disk,8,169,0,-6,1,0,0,rectangle,0,-6,1,0,0,5,0,"[291,4,69,5,178,320,24,125,294,68,70,98,141,16,252,21,231,300,63,243]",0,-6,1,0,0,0,6,6,140,1,,,,,,,,,,,,,,,,,,,,,,,
,,,,,,,,,,,,,,,,,,,,,,,,,,,,,,,,,,,,,,,,,,,5e3c601a8134d004b0ed397a,5fe2f7b75474cdf127f4655a,2020-12-23_07h55.00.550,FlowerSimilarity_Experiment,2020.1.2,Win32,60,5fe17d4a51f3a9c1a60f9869,,,,,,,,,,,,,,,,,,,9,PF,,7,1.47126,,,,,,,,,,,,,,,,,,,,,,,,,,,,,,,,,,38.00006104,94.99996948,1,0,0,response1disk,6,170,-6.999938965,0,1,0,0,rectangle,-6.999938965,0,1,0,0,5,0,"[291,4,69,5,178,320,24,125,294,68,70,98,141,16,252,21,231,300,63,243]",-6.999938965,0,1,0,0,0,7,7,148,1,,,,,,,,,,,,,,,,,,,,,,,
,,,,,,,,,,,,,,,,,,,,,,,,,,,,,,,,,,,,,,,,,,,5e3c601a8134d004b0ed397a,5fe2f7b75474cdf127f4655a,2020-12-23_07h55.00.550,FlowerSimilarity_Experiment,2020.1.2,Win32,60,5fe17d4a51f3a9c1a60f9869,,,,,,,,,,,,,,,,,,,3,PF,,4,1.990255,,,,,,,,,,,,,,,,,,,,,,,,,,,,,,,,,,54,-82,1,0,0,response3disk,1,171,-5,4,1,0,0,rectangle,-5,4,1,0,0,5,2,"[291,4,69,5,178,320,24,125,294,68,70,98,141,16,252,21,231,300,63,243]",-5,4,1,0,0,0,8,8,96,1,,,,,,,,,,,,,,,,,,,,,,,
,,,,,,,,,,,,,,,,,,,,,,,,,,,,,,,,,,,,,,,,,,,5e3c601a8134d004b0ed397a,5fe2f7b75474cdf127f4655a,2020-12-23_07h55.00.550,FlowerSimilarity_Experiment,2020.1.2,Win32,60,5fe17d4a51f3a9c1a60f9869,,,,,,,,,,,,,,,,,,,5,PF,,6,1.896115,,,,,,,,,,,,,,,,,,,,,,,,,,,,,,,,,,98,43,1,0,0,response1disk,8,172,-14,8,1,0,0,rectangle,-14,8,1,0,0,5,2,"[291,4,69,5,178,320,24,125,294,68,70,98,141,16,252,21,231,300,63,243]",-14,8,1,0,0,0,9,9,149,1,,,,,,,,,,,,,,,,,,,,,,,
,,,,,,,,,,,,,,,,,,,,,,,,,,,,,,,,,,,,,,,,,,,5e3c601a8134d004b0ed397a,5fe2f7b75474cdf127f4655a,2020-12-23_07h55.00.550,FlowerSimilarity_Experiment,2020.1.2,Win32,60,5fe17d4a51f3a9c1a60f9869,,,,,,,,,,,,,,,,,,,1,FF,,3,2.64805,,,,,,,,,,,,,,,,,,,,,,,,,,,,,,,,,,-63,-84,1,0,0,response5disk,3,173,-3,-5,1,0,0,rectangle,-3,-5,1,0,0,5,2,"[291,4,69,5,178,320,24,125,294,68,70,98,141,16,252,21,231,300,63,243]",-3,-5,1,0,0,0,10,10,99,1,,,,,,,,,,,,,,,,,,,,,,,
,,,,,,,,,,,,,,,,,,,,,,,,,,,,,,,,,,,,,,,,,,,5e3c601a8134d004b0ed397a,5fe2f7b75474cdf127f4655a,2020-12-23_07h55.00.550,FlowerSimilarity_Experiment,2020.1.2,Win32,60,5fe17d4a51f3a9c1a60f9869,,,,,,,,,,,,,,,,,,,5,PF,,3,1.302945,,,,,,,,,,,,,,,,,,,,,,,,,,,,,,,,,,-39,-85,1,0,0,response5disk,9,174,-9,-1,1,0,0,rectangle,-9,-1,1,0,0,5,7,"[291,4,69,5,178,320,24,125,294,68,70,98,141,16,252,21,231,300,63,243]",-9,-1,1,0,0,0,11,11,136,1,,,,,,,,,,,,,,,,,,,,,,,
,,,,,,,,,,,,,,,,,,,,,,,,,,,,,,,,,,,,,,,,,,,5e3c601a8134d004b0ed397a,5fe2f7b75474cdf127f4655a,2020-12-23_07h55.00.550,FlowerSimilarity_Experiment,2020.1.2,Win32,60,5fe17d4a51f3a9c1a60f9869,,,,,,,,,,,,,,,,,,,2,PF,,5,1.763865,,,,,,,,,,,,,,,,,,,,,,,,,,,,,,,,,,89,-48,1,0,0,response3disk,7,175,10,-10,1,0,0,rectangle,10,-10,1,0,0,5,7,"[291,4,69,5,178,320,24,125,294,68,70,98,141,16,252,21,231,300,63,243]",10,-10,1,0,0,0,12,12,107,1,,,,,,,,,,,,,,,,,,,,,,,
,,,,,,,,,,,,,,,,,,,,,,,,,,,,,,,,,,,,,,,,,,,5e3c601a8134d004b0ed397a,5fe2f7b75474cdf127f4655a,2020-12-23_07h55.00.550,FlowerSimilarity_Experiment,2020.1.2,Win32,60,5fe17d4a51f3a9c1a60f9869,,,,,,,,,,,,,,,,,,,2,PF,,0,1.365375,,,,,,,,,,,,,,,,,,,,,,,,,,,,,,,,,,-39.99993896,73,1,0,0,response7disk,2,176,-6.999938965,-5,1,0,0,rectangle,-6.999938965,-5,1,0,0,5,5,"[291,4,69,5,178,320,24,125,294,68,70,98,141,16,252,21,231,300,63,243]",-6.999938965,-5,1,0,0,0,13,13,14,1,,,,,,,,,,,,,,,,,,,,,,,
,,,,,,,,,,,,,,,,,,,,,,,,,,,,,,,,,,,,,,,,,,,5e3c601a8134d004b0ed397a,5fe2f7b75474cdf127f4655a,2020-12-23_07h55.00.550,FlowerSimilarity_Experiment,2020.1.2,Win32,60,5fe17d4a51f3a9c1a60f9869,,,,,,,,,,,,,,,,,,,6,FF,,7,1.66846,,,,,,,,,,,,,,,,,,,,,,,,,,,,,,,,,,55,85.99996948,1,0,0,response1disk,8,177,28,-5,1,0,0,rectangle,28,-5,1,0,0,5,3,"[291,4,69,5,178,320,24,125,294,68,70,98,141,16,252,21,231,300,63,243]",28,-5,1,0,0,0,14,14,133,1,,,,,,,,,,,,,,,,,,,,,,,
,,,,,,,,,,,,,,,,,,,,,,,,,,,,,,,,,,,,,,,,,,,5e3c601a8134d004b0ed397a,5fe2f7b75474cdf127f4655a,2020-12-23_07h55.00.550,FlowerSimilarity_Experiment,2020.1.2,Win32,60,5fe17d4a51f3a9c1a60f9869,,,,,,,,,,,,,,,,,,,6,FF,,5,3.80329,,,,,,,,,,,,,,,,,,,,,,,,,,,,,,,,,,101,-63,1,0,0,response3disk,9,178,16,0,1,0,0,rectangle,-84.99993896,-45,1,0,0,5,2,"[291,4,69,5,178,320,24,125,294,68,70,98,141,16,252,21,231,300,63,243]",-9,16,1,0,0,0,15,15,160,1,response5disk_3,rectangle,,,,,,,,,,,,,,,,,,,,,
,,,,,,,,,,,,,,,,,,,,,,,,,,,,,,,,,,,,,,,,,,,5e3c601a8134d004b0ed397a,5fe2f7b75474cdf127f4655a,2020-12-23_07h55.00.550,FlowerSimilarity_Experiment,2020.1.2,Win32,60,5fe17d4a51f3a9c1a60f9869,,,,,,,,,,,,,,,,,,,7,PF,,4,2.272495,,,,,,,,,,,,,,,,,,,,,,,,,,,,,,,,,,26.00006104,-84,1,0,0,response3disk,5,179,-11,11,1,0,0,rectangle,-11,11,1,0,0,5,7,"[291,4,69,5,178,320,24,125,294,68,70,98,141,16,252,21,231,300,63,243]",-11,11,1,0,0,0,16,16,92,1,,,,,,,,,,,,,,,,,,,,,,,
,,,,,,,,,,,,,,,,,,,,,,,,,,,,,,,,,,,,,,,,,,,5e3c601a8134d004b0ed397a,5fe2f7b75474cdf127f4655a,2020-12-23_07h55.00.550,FlowerSimilarity_Experiment,2020.1.2,Win32,60,5fe17d4a51f3a9c1a60f9869,,,,,,,,,,,,,,,,,,,6,PF,,4,2.131185,,,,,,,,,,,,,,,,,,,,,,,,,,,,,,,,,,33,-86,1,0,0,response3disk,7,180,-30,8,1,0,0,rectangle,-30,8,1,0,0,5,6,"[291,4,69,5,178,320,24,125,294,68,70,98,141,16,252,21,231,300,63,243]",-30,8,1,0,0,0,17,17,50,1,,,,,,,,,,,,,,,,,,,,,,,
,,,,,,,,,,,,,,,,,,,,,,,,,,,,,,,,,,,,,,,,,,,5e3c601a8134d004b0ed397a,5fe2f7b75474cdf127f4655a,2020-12-23_07h55.00.550,FlowerSimilarity_Experiment,2020.1.2,Win32,60,5fe17d4a51f3a9c1a60f9869,,,,,,,,,,,,,,,,,,,2,PF,,7,1.45587,,,,,,,,,,,,,,,,,,,,,,,,,,,,,,,,,,47.00006104,96,1,0,0,response1disk,8,181,15,7,1,0,0,rectangle,15,7,1,0,0,5,0,"[291,4,69,5,178,320,24,125,294,68,70,98,141,16,252,21,231,300,63,243]",15,7,1,0,0,0,18,18,52,1,,,,,,,,,,,,,,,,,,,,,,,
,,,,,,,,,,,,,,,,,,,,,,,,,,,,,,,,,,,,,,,,,,,5e3c601a8134d004b0ed397a,5fe2f7b75474cdf127f4655a,2020-12-23_07h55.00.550,FlowerSimilarity_Experiment,2020.1.2,Win32,60,5fe17d4a51f3a9c1a60f9869,,,,,,,,,,,,,,,,,,,7,FF,,6,1.52745,,,,,,,,,,,,,,,,,,,,,,,,,,,,,,,,,,81,33,1,0,0,response1disk,4,182,18,-6,1,0,0,rectangle,18,-6,1,0,0,5,6,"[291,4,69,5,178,320,24,125,294,68,70,98,141,16,252,21,231,300,63,243]",18,-6,1,0,0,0,19,19,158,1,,,,,,,,,,,,,,,,,,,,,,,
,,,,,,,,,,,,,,,,,,,,,,,,,,,,,,,,,,,,,,,,,,,5e3c601a8134d004b0ed397a,5fe2f7b75474cdf127f4655a,2020-12-23_07h55.00.550,FlowerSimilarity_Experiment,2020.1.2,Win32,60,5fe17d4a51f3a9c1a60f9869,,,,,,,,,,,,,,,,,,,1,PF,,3,2.249235,,,,,,,,,,,,,,,,,,,,,,,,,,,,,,,,,,-54,-83,1,0,0,response5disk,7,183,-23,-6,1,0,0,rectangle,-23,-6,1,0,0,5,2,"[291,4,69,5,178,320,24,125,294,68,70,98,141,16,252,21,231,300,63,243]",-23,-6,1,0,0,0,20,20,150,1,,,,,,,,,,,,,,,,,,,,,,,
,,,,,,,,,,,,,,,,,,,,,,,,,,,,,,,,,,,,,,,,,,,5e3c601a8134d004b0ed397a,5fe2f7b75474cdf127f4655a,2020-12-23_07h55.00.550,FlowerSimilarity_Experiment,2020.1.2,Win32,60,5fe17d4a51f3a9c1a60f9869,,,,,,,,,,,,,,,,,,,3,FF,,4,1.465385,,,,,,,,,,,,,,,,,,,,,,,,,,,,,,,,,,24,-79,1,0,0,response3disk,8,184,-21.99993896,-8,1,0,0,rectangle,-21.99993896,-8,1,0,0,5,7,"[291,4,69,5,178,320,24,125,294,68,70,98,141,16,252,21,231,300,63,243]",-21.99993896,-8,1,0,0,0,21,21,44,1,,,,,,,,,,,,,,,,,,,,,,,
,,,,,,,,,,,,,,,,,,,,,,,,,,,,,,,,,,,,,,,,,,,5e3c601a8134d004b0ed397a,5fe2f7b75474cdf127f4655a,2020-12-23_07h55.00.550,FlowerSimilarity_Experiment,2020.1.2,Win32,60,5fe17d4a51f3a9c1a60f9869,,,,,,,,,,,,,,,,,,,3,PF,,4,1.066065,,,,,,,,,,,,,,,,,,,,,,,,,,,,,,,,,,58,-86,1,0,0,response3disk,8,185,9,-1,1,0,0,rectangle,9,-1,1,0,0,5,6,"[291,4,69,5,178,320,24,125,294,68,70,98,141,16,252,21,231,300,63,243]",9,-1,1,0,0,0,22,22,3,1,,,,,,,,,,,,,,,,,,,,,,,
,,,,,,,,,,,,,,,,,,,,,,,,,,,,,,,,,,,,,,,,,,,5e3c601a8134d004b0ed397a,5fe2f7b75474cdf127f4655a,2020-12-23_07h55.00.550,FlowerSimilarity_Experiment,2020.1.2,Win32,60,5fe17d4a51f3a9c1a60f9869,,,,,,,,,,,,,,,,,,,2,PF,,3,1.91493,,,,,,,,,,,,,,,,,,,,,,,,,,,,,,,,,,-42,-97,1,0,0,response5disk,1,186,2.000061035,8,1,0,0,rectangle,2.000061035,8,1,0,0,5,1,"[291,4,69,5,178,320,24,125,294,68,70,98,141,16,252,21,231,300,63,243]",2.000061035,8,1,0,0,0,23,23,9,1,,,,,,,,,,,,,,,,,,,,,,,
,,,,,,,,,,,,,,,,,,,,,,,,,,,,,,,,,,,,,,,,,,,5e3c601a8134d004b0ed397a,5fe2f7b75474cdf127f4655a,2020-12-23_07h55.00.550,FlowerSimilarity_Experiment,2020.1.2,Win32,60,5fe17d4a51f3a9c1a60f9869,,,,,,,,,,,,,,,,,,,3,PF,,7,1.954475,,,,,,,,,,,,,,,,,,,,,,,,,,,,,,,,,,38.00006104,75,1,0,0,response1disk,6,187,-6.999938965,-14,1,0,0,rectangle,-6.999938965,-14,1,0,0,5,7,"[291,4,69,5,178,320,24,125,294,68,70,98,141,16,252,21,231,300,63,243]",-6.999938965,-14,1,0,0,0,24,24,47,1,,,,,,,,,,,,,,,,,,,,,,,
,,,,,,,,,,,,,,,,,,,,,,,,,,,,,,,,,,,,,,,,,,,5e3c601a8134d004b0ed397a,5fe2f7b75474cdf127f4655a,2020-12-23_07h55.00.550,FlowerSimilarity_Experiment,2020.1.2,Win32,60,5fe17d4a51f3a9c1a60f9869,,,,,,,,,,,,,,,,,,,4,PF,,5,1.98773,,,,,,,,,,,,,,,,,,,,,,,,,,,,,,,,,,70,-47,1,0,0,response3disk,9,188,-0.999938965,0,1,0,0,rectangle,-0.999938965,0,1,0,0,5,7,"[291,4,69,5,178,320,24,125,294,68,70,98,141,16,252,21,231,300,63,243]",-0.999938965,0,1,0,0,0,25,25,75,1,,,,,,,,,,,,,,,,,,,,,,,
,,,,,,,,,,,,,,,,,,,,,,,,,,,,,,,,,,,,,,,,,,,5e3c601a8134d004b0ed397a,5fe2f7b75474cdf127f4655a,2020-12-23_07h55.00.550,FlowerSimilarity_Experiment,2020.1.2,Win32,60,5fe17d4a51f3a9c1a60f9869,,,,,,,,,,,,,,,,,,,2,PF,,7,1.34209,,,,,,,,,,,,,,,,,,,,,,,,,,,,,,,,,,30,78,1,0,0,response1disk,6,189,9,1,1,0,0,rectangle,9,1,1,0,0,5,0,"[291,4,69,5,178,320,24,125,294,68,70,98,141,16,252,21,231,300,63,243]",9,1,1,0,0,0,26,26,113,1,,,,,,,,,,,,,,,,,,,,,,,
,,,,,,,,,,,,,,,,,,,,,,,,,,,,,,,,,,,,,,,,,,,5e3c601a8134d004b0ed397a,5fe2f7b75474cdf127f4655a,2020-12-23_07h55.00.550,FlowerSimilarity_Experiment,2020.1.2,Win32,60,5fe17d4a51f3a9c1a60f9869,,,,,,,,,,,,,,,,,,,8,PF,,2,2.05438,,,,,,,,,,,,,,,,,,,,,,,,,,,,,,,,,,-80,-40,1,0,0,response5disk,9,190,-35,7,1,0,0,rectangle,-35,7,1,0,0,5,7,"[291,4,69,5,178,320,24,125,294,68,70,98,141,16,252,21,231,300,63,243]",-35,7,1,0,0,0,27,27,42,1,,,,,,,,,,,,,,,,,,,,,,,
,,,,,,,,,,,,,,,,,,,,,,,,,,,,,,,,,,,,,,,,,,,5e3c601a8134d004b0ed397a,5fe2f7b75474cdf127f4655a,2020-12-23_07h55.00.550,FlowerSimilarity_Experiment,2020.1.2,Win32,60,5fe17d4a51f3a9c1a60f9869,,,,,,,,,,,,,,,,,,,1,PF,,3,1.37167,,,,,,,,,,,,,,,,,,,,,,,,,,,,,,,,,,-35,-96,1,0,0,response5disk,9,191,-17,-1,1,0,0,rectangle,-17,-1,1,0,0,5,3,"[291,4,69,5,178,320,24,125,294,68,70,98,141,16,252,21,231,300,63,243]",-17,-1,1,0,0,0,28,28,15,1,,,,,,,,,,,,,,,,,,,,,,,
,,,,,,,,,,,,,,,,,,,,,,,,,,,,,,,,,,,,,,,,,,,5e3c601a8134d004b0ed397a,5fe2f7b75474cdf127f4655a,2020-12-23_07h55.00.550,FlowerSimilarity_Experiment,2020.1.2,Win32,60,5fe17d4a51f3a9c1a60f9869,,,,,,,,,,,,,,,,,,,4,FF,,4,3.26397,,,,,,,,,,,,,,,,,,,,,,,,,,,,,,,,,,28,-88,1,0,0,response3disk,5,192,-3.999938965,2,1,0,0,rectangle,-3.999938965,2,1,0,0,5,1,"[291,4,69,5,178,320,24,125,294,68,70,98,141,16,252,21,231,300,63,243]",-3.999938965,2,1,0,0,0,29,29,116,1,,,,,,,,,,,,,,,,,,,,,,,
,,,,,,,,,,,,,,,,,,,,,,,,,,,,,,,,,,,,,,,,,,,5e3c601a8134d004b0ed397a,5fe2f7b75474cdf127f4655a,2020-12-23_07h55.00.550,FlowerSimilarity_Experiment,2020.1.2,Win32,60,5fe17d4a51f3a9c1a60f9869,,,,,,,,,,,,,,,,,,,8,PF,,5,1.633045,,,,,,,,,,,,,,,,,,,,,,,,,,,,,,,,,,87,-33,1,0,0,response3disk,7,193,-6.999938965,12,1,0,0,rectangle,-6.999938965,12,1,0,0,5,0,"[291,4,69,5,178,320,24,125,294,68,70,98,141,16,252,21,231,300,63,243]",-6.999938965,12,1,0,0,0,30,30,23,1,,,,,,,,,,,,,,,,,,,,,,,
,,,,,,,,,,,,,,,,,,,,,,,,,,,,,,,,,,,,,,,,,,,5e3c601a8134d004b0ed397a,5fe2f7b75474cdf127f4655a,2020-12-23_07h55.00.550,FlowerSimilarity_Experiment,2020.1.2,Win32,60,5fe17d4a51f3a9c1a60f9869,,,,,,,,,,,,,,,,,,,4,FF,,0,2.039525,,,,,,,,,,,,,,,,,,,,,,,,,,,,,,,,,,-35,100.9999695,1,0,0,response7disk,4,194,25,-8,1,0,0,rectangle,25,-8,1,0,0,5,1,"[291,4,69,5,178,320,24,125,294,68,70,98,141,16,252,21,231,300,63,243]",25,-8,1,0,0,0,31,31,84,1,,,,,,,,,,,,,,,,,,,,,,,
,,,,,,,,,,,,,,,,,,,,,,,,,,,,,,,,,,,,,,,,,,,5e3c601a8134d004b0ed397a,5fe2f7b75474cdf127f4655a,2020-12-23_07h55.00.550,FlowerSimilarity_Experiment,2020.1.2,Win32,60,5fe17d4a51f3a9c1a60f9869,,,,,,,,,,,,,,,,,,,6,FF,,7,1.539635,,,,,,,,,,,,,,,,,,,,,,,,,,,,,,,,,,43,90,1,0,0,response1disk,7,195,24,14,1,0,0,rectangle,24,14,1,0,0,6,4,"[291,4,69,5,178,320,24,125,294,68,70,98,141,16,252,21,231,300,63,243]",24,14,1,0,0,0,32,32,18,1,,,,,,,,,,,,,,,,,,,,,,,
,,,,,,,,,,,,,,,,,,,,,,,,,,,,,,,,,,,,,,,,,,,5e3c601a8134d004b0ed397a,5fe2f7b75474cdf127f4655a,2020-12-23_07h55.00.550,FlowerSimilarity_Experiment,2020.1.2,Win32,60,5fe17d4a51f3a9c1a60f9869,,,,,,,,,,,,,,,,,,,3,FF,,5,1.56536,,,,,,,,,,,,,,,,,,,,,,,,,,,,,,,,,,105,-48,1,0,0,response3disk,1,196,22,-6,1,0,0,rectangle,22,-6,1,0,0,6,7,"[291,4,69,5,178,320,24,125,294,68,70,98,141,16,252,21,231,300,63,243]",22,-6,1,0,0,0,33,33,125,1,,,,,,,,,,,,,,,,,,,,,,,
,,,,,,,,,,,,,,,,,,,,,,,,,,,,,,,,,,,,,,,,,,,5e3c601a8134d004b0ed397a,5fe2f7b75474cdf127f4655a,2020-12-23_07h55.00.550,FlowerSimilarity_Experiment,2020.1.2,Win32,60,5fe17d4a51f3a9c1a60f9869,,,,,,,,,,,,,,,,,,,5,FF,,4,0.999175,,,,,,,,,,,,,,,,,,,,,,,,,,,,,,,,,,58,-97,1,0,0,response3disk,2,197,16,-2,1,0,0,rectangle,16,-2,1,0,0,6,4,"[291,4,69,5,178,320,24,125,294,68,70,98,141,16,252,21,231,300,63,243]",16,-2,1,0,0,0,34,34,55,1,,,,,,,,,,,,,,,,,,,,,,,
,,,,,,,,,,,,,,,,,,,,,,,,,,,,,,,,,,,,,,,,,,,5e3c601a8134d004b0ed397a,5fe2f7b75474cdf127f4655a,2020-12-23_07h55.00.550,FlowerSimilarity_Experiment,2020.1.2,Win32,60,5fe17d4a51f3a9c1a60f9869,,,,,,,,,,,,,,,,,,,3,FF,,5,1.549065,,,,,,,,,,,,,,,,,,,,,,,,,,,,,,,,,,83,-20,1,0,0,response3disk,4,198,-6,6,1,0,0,rectangle,-6,6,1,0,0,6,4,"[291,4,69,5,178,320,24,125,294,68,70,98,141,16,252,21,231,300,63,243]",-6,6,1,0,0,0,35,35,110,1,,,,,,,,,,,,,,,,,,,,,,,
,,,,,,,,,,,,,,,,,,,,,,,,,,,,,,,,,,,,,,,,,,,5e3c601a8134d004b0ed397a,5fe2f7b75474cdf127f4655a,2020-12-23_07h55.00.550,FlowerSimilarity_Experiment,2020.1.2,Win32,60,5fe17d4a51f3a9c1a60f9869,,,,,,,,,,,,,,,,,,,7,FF,,0,1.21578,,,,,,,,,,,,,,,,,,,,,,,,,,,,,,,,,,-66,94.99996948,1,0,0,response7disk,7,199,5.000061035,-13,1,0,0,rectangle,5.000061035,-13,1,0,0,6,1,"[291,4,69,5,178,320,24,125,294,68,70,98,141,16,252,21,231,300,63,243]",5.000061035,-13,1,0,0,0,36,36,34,1,,,,,,,,,,,,,,,,,,,,,,,
,,,,,,,,,,,,,,,,,,,,,,,,,,,,,,,,,,,,,,,,,,,5e3c601a8134d004b0ed397a,5fe2f7b75474cdf127f4655a,2020-12-23_07h55.00.550,FlowerSimilarity_Experiment,2020.1.2,Win32,60,5fe17d4a51f3a9c1a60f9869,,,,,,,,,,,,,,,,,,,1,FF,,3,1.99266,,,,,,,,,,,,,,,,,,,,,,,,,,,,,,,,,,-35,-91,1,0,0,response5disk,7,200,-24,7,1,0,0,rectangle,-24,7,1,0,0,6,0,"[291,4,69,5,178,320,24,125,294,68,70,98,141,16,252,21,231,300,63,243]",-24,7,1,0,0,0,37,37,137,1,,,,,,,,,,,,,,,,,,,,,,,
,,,,,,,,,,,,,,,,,,,,,,,,,,,,,,,,,,,,,,,,,,,5e3c601a8134d004b0ed397a,5fe2f7b75474cdf127f4655a,2020-12-23_07h55.00.550,FlowerSimilarity_Experiment,2020.1.2,Win32,60,5fe17d4a51f3a9c1a60f9869,,,,,,,,,,,,,,,,,,,7,FF,,4,2.33911,,,,,,,,,,,,,,,,,,,,,,,,,,,,,,,,,,31,-85,1,0,0,response3disk,9,201,-11,20,1,0,0,rectangle,-11,20,1,0,0,6,6,"[291,4,69,5,178,320,24,125,294,68,70,98,141,16,252,21,231,300,63,243]",-11,20,1,0,0,0,38,38,155,1,,,,,,,,,,,,,,,,,,,,,,,
