key_resp.keys,key_resp.rt,key_resp_16.keys,key_resp_16.rt,key_resp_2.keys,key_resp_2.rt,X Scale,ratio_pxpermm,screen_size_x,screen_size_y,testsize,key_resp_3.keys,key_resp_3.rt,key_resp_4.keys,key_resp_4.rt,line_size,key_resp_5.keys,key_resp_5.rt,key_resp_6.keys,key_resp_6.rt,key_resp_8.keys,key_resp_8.rt,key_resp_7.keys,key_resp_7.rt,key_resp_12.keys,key_resp_12.rt,key_resp_11.keys,key_resp_11.rt,key_resp_18.keys,key_resp_18.rt,key_resp_21.keys,key_resp_21.rt,key_resp_13.keys,key_resp_13.rt,key_resp_19.keys,key_resp_19.rt,ballposx,viewer_distance,trials.thisRepN,trials.thisTrialN,trials.thisN,trials.thisIndex,trials.ran,participant,session,date,expName,psychopyVersion,OS,frameRate,study_id,viewerdistancecm,DVA_to_distance,radius_F,radius_P,r_F,R_P,key_resp_20.keys,key_resp_20.rt,key_resp_14.keys,key_resp_14.rt,key_resp_15.keys,key_resp_15.rt,key_resp_17.keys,key_resp_17.rt,key_resp_9.keys,key_resp_9.rt,key_resp_10.keys,key_resp_10.rt,Flower1,Ecc,Flower_2,similarity,response_time,mouse_5.x,mouse_5.y,mouse_5.leftButton,mouse_5.midButton,mouse_5.rightButton,mouse_5.clicked_name,mouse_10.x,mouse_10.y,mouse_10.leftButton,mouse_10.midButton,mouse_10.rightButton,mouse_10.clicked_name,mouse_7.x,mouse_7.y,mouse_7.leftButton,mouse_7.midButton,mouse_7.rightButton,catchnumberprac,mouse_6.x,mouse_6.y,mouse_6.leftButton,mouse_6.midButton,mouse_6.rightButton,duringprac.thisRepN,duringprac.thisTrialN,duringprac.thisN,duringprac.thisIndex,duringprac.ran,mouse_7.clicked_name,mouse_6.clicked_name,key_resp_22.keys,key_resp_22.rt,mouse.x,mouse.y,mouse.leftButton,mouse.midButton,mouse.rightButton,mouse.clicked_name,Flower2,trialnumber,mouse_2.x,mouse_2.y,mouse_2.leftButton,mouse_2.midButton,mouse_2.rightButton,mouse_2.clicked_name,mouse_3.x,mouse_3.y,mouse_3.leftButton,mouse_3.midButton,mouse_3.rightButton,catchresponse,catchnumber,catchtrialorder,mouse_11.x,mouse_11.y,mouse_11.leftButton,mouse_11.midButton,mouse_11.rightButton,trials_2.thisRepN,trials_2.thisTrialN,trials_2.thisN,trials_2.thisIndex,trials_2.ran,mouse_3.clicked_name,mouse_11.clicked_name,trials_3.thisRepN,trials_3.thisTrialN,trials_3.thisN,trials_3.thisIndex,trials_3.ran,answer1,rt1,answer2,rt2,answer3,rt3,answer4,rt4,answer5,rt5,answer6,rt6,answer8,rt8,answer7,rt7
space,7.994045,space,9.87298,space,7.759775,39.6,3.96,344.9494949,193.9393939,1366,space,39.580135,space,18.803495,79.2,space,12.45126,space,15.917375,space,9.10829,space,22.064315,space,20.95169,space,31.727525,space,17.96949,space,15.80882,space,18.84518,return,5.54542,-170.067,753.611348,0,0,0,0,1,5e68cedf12215e16f2b39fe3,5fe19771c274b3c312ccae4c,2020-12-22_08h53.16.895,FlowerSimilarity_Experiment,2020.1.2,Win32,60,5fe17d4a51f3a9c1a60f9869,,,,,,,,,,,,,,,,,,,,,,,,,,,,,,,,,,,,,,,,,,,,,,,,,,,,,,,,,,,,,,,,,,,,,,,,,,,,,,,,,,,,,,,,,,,,,,,,,,,,,,,,,,,,,,
,,,,,,,,,,,,,,,,,,,,,,,,,,,,,,,,,,return,7.51107,-129.087,710.5067904,1,0,1,0,1,5e68cedf12215e16f2b39fe3,5fe19771c274b3c312ccae4c,2020-12-22_08h53.16.895,FlowerSimilarity_Experiment,2020.1.2,Win32,60,5fe17d4a51f3a9c1a60f9869,,,,,,,,,,,,,,,,,,,,,,,,,,,,,,,,,,,,,,,,,,,,,,,,,,,,,,,,,,,,,,,,,,,,,,,,,,,,,,,,,,,,,,,,,,,,,,,,,,,,,,,,,,,,,,
,,,,,,,,,,,,,,,,,,,,,,,,,,,,,,,,,,return,5.50353,-159.822,742.8352086,2,0,2,0,1,5e68cedf12215e16f2b39fe3,5fe19771c274b3c312ccae4c,2020-12-22_08h53.16.895,FlowerSimilarity_Experiment,2020.1.2,Win32,60,5fe17d4a51f3a9c1a60f9869,,,,,,,,,,,,,,,,,,,,,,,,,,,,,,,,,,,,,,,,,,,,,,,,,,,,,,,,,,,,,,,,,,,,,,,,,,,,,,,,,,,,,,,,,,,,,,,,,,,,,,,,,,,,,,
,,,,,,,,,,,,,,,,,,,,,,,,,,,,,,,,,,return,5.038635,-102.45,682.488828,3,0,3,0,1,5e68cedf12215e16f2b39fe3,5fe19771c274b3c312ccae4c,2020-12-22_08h53.16.895,FlowerSimilarity_Experiment,2020.1.2,Win32,60,5fe17d4a51f3a9c1a60f9869,,,,,,,,,,,,,,,,,,,,,,,,,,,,,,,,,,,,,,,,,,,,,,,,,,,,,,,,,,,,,,,,,,,,,,,,,,,,,,,,,,,,,,,,,,,,,,,,,,,,,,,,,,,,,,
,,,,,,,,,,,,,,,,,,,,,,,,,,,,,,,,,,return,5.02251,-98.352,678.1783723,4,0,4,0,1,5e68cedf12215e16f2b39fe3,5fe19771c274b3c312ccae4c,2020-12-22_08h53.16.895,FlowerSimilarity_Experiment,2020.1.2,Win32,60,5fe17d4a51f3a9c1a60f9869,,,,,,,,,,,,,,,,,,,,,,,,,,,,,,,,,,,,,,,,,,,,,,,,,,,,,,,,,,,,,,,,,,,,,,,,,,,,,,,,,,,,,,,,,,,,,,,,,,,,,,,,,,,,,,
,,,,,,,,,,,,,,,,,,,,,,,,,,,,,,,,,,,,,,,,,,,5e68cedf12215e16f2b39fe3,5fe19771c274b3c312ccae4c,2020-12-22_08h53.16.895,FlowerSimilarity_Experiment,2020.1.2,Win32,60,5fe17d4a51f3a9c1a60f9869,71,12.39309167,73.6149645,490.76643,49.076643,220.8448935,space,9.327295,space,20.49849,space,16.200635,space,4.567655,space,11.207385,space,5.91464,3,FF,3,0,20.1122,-33,86,1,0,0,response7disk_5,-10,-3,1,0,0,rectangle_8,-10,-3,1,0,0,2,-10,-3,1,0,0,0,0,0,3,1,,,,,,,,,,,,,,,,,,,,,,,,,,,,,,,,,,,,,,,,,,,,,,,,,,,,,,,,,,,
,,,,,,,,,,,,,,,,,,,,,,,,,,,,,,,,,,,,,,,,,,,5e68cedf12215e16f2b39fe3,5fe19771c274b3c312ccae4c,2020-12-22_08h53.16.895,FlowerSimilarity_Experiment,2020.1.2,Win32,60,5fe17d4a51f3a9c1a60f9869,,,,,,,,,,,,,,,,,,,3,FF,4,7,3.85213,55,92,1,0,0,response1disk_5,-8,1,1,0,0,rectangle_8,-8,1,1,0,0,2,-8,1,1,0,0,0,1,1,0,1,,,,,,,,,,,,,,,,,,,,,,,,,,,,,,,,,,,,,,,,,,,,,,,,,,,,,,,,,,,
,,,,,,,,,,,,,,,,,,,,,,,,,,,,,,,,,,,,,,,,,,,5e68cedf12215e16f2b39fe3,5fe19771c274b3c312ccae4c,2020-12-22_08h53.16.895,FlowerSimilarity_Experiment,2020.1.2,Win32,60,5fe17d4a51f3a9c1a60f9869,,,,,,,,,,,,,,,,,,,1,FF,6,3,4.47696,-36,-97,1,0,0,response5disk_5,3,2,1,0,0,rectangle_8,-99,-50,1,0,0,2,-5,4,1,0,0,0,2,2,5,1,response5disk_7,rectangle_4,,,,,,,,,,,,,,,,,,,,,,,,,,,,,,,,,,,,,,,,,,,,,,,,,,,,,,,,,
,,,,,,,,,,,,,,,,,,,,,,,,,,,,,,,,,,,,,,,,,,,5e68cedf12215e16f2b39fe3,5fe19771c274b3c312ccae4c,2020-12-22_08h53.16.895,FlowerSimilarity_Experiment,2020.1.2,Win32,60,5fe17d4a51f3a9c1a60f9869,,,,,,,,,,,,,,,,,,,7,PF,5,4,3.19786,52,-75,1,0,0,response3disk_5,-6,-1,1,0,0,rectangle_8,-84,-42,1,0,0,2,6,2,1,0,0,0,3,3,6,1,response5disk_7,rectangle_4,,,,,,,,,,,,,,,,,,,,,,,,,,,,,,,,,,,,,,,,,,,,,,,,,,,,,,,,,
,,,,,,,,,,,,,,,,,,,,,,,,,,,,,,,,,,,,,,,,,,,5e68cedf12215e16f2b39fe3,5fe19771c274b3c312ccae4c,2020-12-22_08h53.16.895,FlowerSimilarity_Experiment,2020.1.2,Win32,60,5fe17d4a51f3a9c1a60f9869,,,,,,,,,,,,,,,,,,,8,PF,6,7,7.07947,46,79,1,0,0,response1disk_5,10,-6,1,0,0,rectangle_8,10,-6,1,0,0,2,10,-6,1,0,0,0,4,4,1,1,,,,,,,,,,,,,,,,,,,,,,,,,,,,,,,,,,,,,,,,,,,,,,,,,,,,,,,,,,,
,,,,,,,,,,,,,,,,,,,,,,,,,,,,,,,,,,,,,,,,,,,5e68cedf12215e16f2b39fe3,5fe19771c274b3c312ccae4c,2020-12-22_08h53.16.895,FlowerSimilarity_Experiment,2020.1.2,Win32,60,5fe17d4a51f3a9c1a60f9869,,,,,,,,,,,,,,,,,,,8,PF,1,7,1.468225,37,78,1,0,0,response1disk_5,-10,1,1,0,0,rectangle_8,-10,1,1,0,0,2,-10,1,1,0,0,0,5,5,2,1,,,,,,,,,,,,,,,,,,,,,,,,,,,,,,,,,,,,,,,,,,,,,,,,,,,,,,,,,,,
,,,,,,,,,,,,,,,,,,,,,,,,,,,,,,,,,,,,,,,,,,,5e68cedf12215e16f2b39fe3,5fe19771c274b3c312ccae4c,2020-12-22_08h53.16.895,FlowerSimilarity_Experiment,2020.1.2,Win32,60,5fe17d4a51f3a9c1a60f9869,,,,,,,,,,,,,,,,,,,7,PF,5,3,3.38028,-44,-96,1,0,0,response5disk_5,7,1,1,0,0,rectangle_8,7,1,1,0,0,2,7,1,1,0,0,0,6,6,4,1,,,,,,,,,,,,,,,,,,,,,,,,,,,,,,,,,,,,,,,,,,,,,,,,,,,,,,,,,,,
,,,,,,,,,,,,,,,,,,,,,,,,,,,,,,,,,,,,,,,,,,,5e68cedf12215e16f2b39fe3,5fe19771c274b3c312ccae4c,2020-12-22_08h53.16.895,FlowerSimilarity_Experiment,2020.1.2,Win32,60,5fe17d4a51f3a9c1a60f9869,,,,,,,,,,,,,,,,,,,8,FF,,4,2.46448,,,,,,,,,,,,,,,,,,,,,,,,,,,,,,,space,4.028515,26,-71,1,0,0,response3disk,2,1,-9,4,1,0,0,rectangle,-9,4,1,0,0,,4,"[66,8,178,45,101,63,155,129,12,223,122,291,183,219,79,295,147,14,191,7]",-9,4,1,0,0,0,0,0,22,1,,,,,,,,,,,,,,,,,,,,,,,
,,,,,,,,,,,,,,,,,,,,,,,,,,,,,,,,,,,,,,,,,,,5e68cedf12215e16f2b39fe3,5fe19771c274b3c312ccae4c,2020-12-22_08h53.16.895,FlowerSimilarity_Experiment,2020.1.2,Win32,60,5fe17d4a51f3a9c1a60f9869,,,,,,,,,,,,,,,,,,,6,PF,,6,1.700655,,,,,,,,,,,,,,,,,,,,,,,,,,,,,,,,,90,42,1,0,0,response1disk,1,2,12,6,1,0,0,rectangle,12,6,1,0,0,,5,"[66,8,178,45,101,63,155,129,12,223,122,291,183,219,79,295,147,14,191,7]",12,6,1,0,0,0,1,1,46,1,,,,,,,,,,,,,,,,,,,,,,,
,,,,,,,,,,,,,,,,,,,,,,,,,,,,,,,,,,,,,,,,,,,5e68cedf12215e16f2b39fe3,5fe19771c274b3c312ccae4c,2020-12-22_08h53.16.895,FlowerSimilarity_Experiment,2020.1.2,Win32,60,5fe17d4a51f3a9c1a60f9869,,,,,,,,,,,,,,,,,,,1,FF,,0,2.368925,,,,,,,,,,,,,,,,,,,,,,,,,,,,,,,,,-45,97,1,0,0,response7disk,1,3,5,5,1,0,0,rectangle,5,5,1,0,0,,5,"[66,8,178,45,101,63,155,129,12,223,122,291,183,219,79,295,147,14,191,7]",5,5,1,0,0,0,2,2,151,1,,,,,,,,,,,,,,,,,,,,,,,
,,,,,,,,,,,,,,,,,,,,,,,,,,,,,,,,,,,,,,,,,,,5e68cedf12215e16f2b39fe3,5fe19771c274b3c312ccae4c,2020-12-22_08h53.16.895,FlowerSimilarity_Experiment,2020.1.2,Win32,60,5fe17d4a51f3a9c1a60f9869,,,,,,,,,,,,,,,,,,,4,PF,,5,1.77111,,,,,,,,,,,,,,,,,,,,,,,,,,,,,,,,,69,-48,1,0,0,response3disk,5,4,-12,6,1,0,0,rectangle,-12,6,1,0,0,,1,"[66,8,178,45,101,63,155,129,12,223,122,291,183,219,79,295,147,14,191,7]",-12,6,1,0,0,0,3,3,49,1,,,,,,,,,,,,,,,,,,,,,,,
,,,,,,,,,,,,,,,,,,,,,,,,,,,,,,,,,,,,,,,,,,,5e68cedf12215e16f2b39fe3,5fe19771c274b3c312ccae4c,2020-12-22_08h53.16.895,FlowerSimilarity_Experiment,2020.1.2,Win32,60,5fe17d4a51f3a9c1a60f9869,,,,,,,,,,,,,,,,,,,3,FF,,5,1.591315,,,,,,,,,,,,,,,,,,,,,,,,,,,,,,,,,74,-31,1,0,0,response3disk,8,5,-6,7,1,0,0,rectangle,-6,7,1,0,0,,4,"[66,8,178,45,101,63,155,129,12,223,122,291,183,219,79,295,147,14,191,7]",-6,7,1,0,0,0,4,4,44,1,,,,,,,,,,,,,,,,,,,,,,,
,,,,,,,,,,,,,,,,,,,,,,,,,,,,,,,,,,,,,,,,,,,5e68cedf12215e16f2b39fe3,5fe19771c274b3c312ccae4c,2020-12-22_08h53.16.895,FlowerSimilarity_Experiment,2020.1.2,Win32,60,5fe17d4a51f3a9c1a60f9869,,,,,,,,,,,,,,,,,,,6,FF,,7,2.569935,,,,,,,,,,,,,,,,,,,,,,,,,,,,,,,,,60,90,1,0,0,response1disk,8,6,7,-4,1,0,0,rectangle,7,-4,1,0,0,,1,"[66,8,178,45,101,63,155,129,12,223,122,291,183,219,79,295,147,14,191,7]",7,-4,1,0,0,0,5,5,133,1,,,,,,,,,,,,,,,,,,,,,,,
,,,,,,,,,,,,,,,,,,,,,,,,,,,,,,,,,,,,,,,,,,,5e68cedf12215e16f2b39fe3,5fe19771c274b3c312ccae4c,2020-12-22_08h53.16.895,FlowerSimilarity_Experiment,2020.1.2,Win32,60,5fe17d4a51f3a9c1a60f9869,,,,,,,,,,,,,,,,,,,4,FF,,7,1.50728,,,,,,,,,,,,,,,,,,,,,,,,,,,,,,,,,29,74,1,0,0,response1disk,9,7,4,-7,1,0,0,rectangle,34,-77,1,0,0,4,4,"[66,8,178,45,101,63,155,129,12,223,122,291,183,219,79,295,147,14,191,7]",2,4,1,0,0,0,6,6,90,1,response3disk_3,rectangle,,,,,,,,,,,,,,,,,,,,,
,,,,,,,,,,,,,,,,,,,,,,,,,,,,,,,,,,,,,,,,,,,5e68cedf12215e16f2b39fe3,5fe19771c274b3c312ccae4c,2020-12-22_08h53.16.895,FlowerSimilarity_Experiment,2020.1.2,Win32,60,5fe17d4a51f3a9c1a60f9869,,,,,,,,,,,,,,,,,,,8,PF,,0,1.61392,,,,,,,,,,,,,,,,,,,,,,,,,,,,,,,,,-47,109,1,0,0,response7disk,5,8,5,-3,1,0,0,rectangle,-43,89,1,0,0,0,0,"[66,8,178,45,101,63,155,129,12,223,122,291,183,219,79,295,147,14,191,7]",-3,11,1,0,0,0,7,7,98,1,response7disk_3,rectangle,,,,,,,,,,,,,,,,,,,,,
,,,,,,,,,,,,,,,,,,,,,,,,,,,,,,,,,,,,,,,,,,,5e68cedf12215e16f2b39fe3,5fe19771c274b3c312ccae4c,2020-12-22_08h53.16.895,FlowerSimilarity_Experiment,2020.1.2,Win32,60,5fe17d4a51f3a9c1a60f9869,,,,,,,,,,,,,,,,,,,1,FF,,7,3.36496,,,,,,,,,,,,,,,,,,,,,,,,,,,,,,,,,52,88,1,0,0,response1disk,5,9,7,4,1,0,0,rectangle,7,4,1,0,0,0,1,"[66,8,178,45,101,63,155,129,12,223,122,291,183,219,79,295,147,14,191,7]",7,4,1,0,0,0,8,8,82,1,,,,,,,,,,,,,,,,,,,,,,,
,,,,,,,,,,,,,,,,,,,,,,,,,,,,,,,,,,,,,,,,,,,5e68cedf12215e16f2b39fe3,5fe19771c274b3c312ccae4c,2020-12-22_08h53.16.895,FlowerSimilarity_Experiment,2020.1.2,Win32,60,5fe17d4a51f3a9c1a60f9869,,,,,,,,,,,,,,,,,,,2,FF,,3,2.855645,,,,,,,,,,,,,,,,,,,,,,,,,,,,,,,,,-63,-98,1,0,0,response5disk,7,10,-1,-6,1,0,0,rectangle,-1,-6,1,0,0,0,5,"[66,8,178,45,101,63,155,129,12,223,122,291,183,219,79,295,147,14,191,7]",-1,-6,1,0,0,0,9,9,63,1,,,,,,,,,,,,,,,,,,,,,,,
,,,,,,,,,,,,,,,,,,,,,,,,,,,,,,,,,,,,,,,,,,,5e68cedf12215e16f2b39fe3,5fe19771c274b3c312ccae4c,2020-12-22_08h53.16.895,FlowerSimilarity_Experiment,2020.1.2,Win32,60,5fe17d4a51f3a9c1a60f9869,,,,,,,,,,,,,,,,,,,5,PF,,0,1.599225,,,,,,,,,,,,,,,,,,,,,,,,,,,,,,,,,-45,94,1,0,0,response7disk,5,11,-2,-1,1,0,0,rectangle,-2,-1,1,0,0,0,2,"[66,8,178,45,101,63,155,129,12,223,122,291,183,219,79,295,147,14,191,7]",-2,-1,1,0,0,0,10,10,94,1,,,,,,,,,,,,,,,,,,,,,,,
,,,,,,,,,,,,,,,,,,,,,,,,,,,,,,,,,,,,,,,,,,,5e68cedf12215e16f2b39fe3,5fe19771c274b3c312ccae4c,2020-12-22_08h53.16.895,FlowerSimilarity_Experiment,2020.1.2,Win32,60,5fe17d4a51f3a9c1a60f9869,,,,,,,,,,,,,,,,,,,1,PF,,0,1.43402,,,,,,,,,,,,,,,,,,,,,,,,,,,,,,,,,-34,99,1,0,0,response7disk,1,12,8,4,1,0,0,rectangle,39,-95,1,0,0,4,4,"[66,8,178,45,101,63,155,129,12,223,122,291,183,219,79,295,147,14,191,7]",-2,7,1,0,0,0,11,11,76,1,response3disk_3,rectangle,,,,,,,,,,,,,,,,,,,,,
,,,,,,,,,,,,,,,,,,,,,,,,,,,,,,,,,,,,,,,,,,,5e68cedf12215e16f2b39fe3,5fe19771c274b3c312ccae4c,2020-12-22_08h53.16.895,FlowerSimilarity_Experiment,2020.1.2,Win32,60,5fe17d4a51f3a9c1a60f9869,,,,,,,,,,,,,,,,,,,3,PF,,0,1.652455,,,,,,,,,,,,,,,,,,,,,,,,,,,,,,,,,-30,78,1,0,0,response7disk,3,13,11,1,1,0,0,rectangle,11,1,1,0,0,4,6,"[66,8,178,45,101,63,155,129,12,223,122,291,183,219,79,295,147,14,191,7]",11,1,1,0,0,0,12,12,4,1,,,,,,,,,,,,,,,,,,,,,,,
,,,,,,,,,,,,,,,,,,,,,,,,,,,,,,,,,,,,,,,,,,,5e68cedf12215e16f2b39fe3,5fe19771c274b3c312ccae4c,2020-12-22_08h53.16.895,FlowerSimilarity_Experiment,2020.1.2,Win32,60,5fe17d4a51f3a9c1a60f9869,,,,,,,,,,,,,,,,,,,9,PF,,7,7.419675,,,,,,,,,,,,,,,,,,,,,,,,,,,,,,,,,50,87,1,0,0,response1disk,2,14,6,1,1,0,0,rectangle,95,47,1,0,0,6,6,"[66,8,178,45,101,63,155,129,12,223,122,291,183,219,79,295,147,14,191,7]",1,9,1,0,0,0,13,13,157,1,response1disk_3,rectangle,,,,,,,,,,,,,,,,,,,,,
,,,,,,,,,,,,,,,,,,,,,,,,,,,,,,,,,,,,,,,,,,,5e68cedf12215e16f2b39fe3,5fe19771c274b3c312ccae4c,2020-12-22_08h53.16.895,FlowerSimilarity_Experiment,2020.1.2,Win32,60,5fe17d4a51f3a9c1a60f9869,,,,,,,,,,,,,,,,,,,6,PF,,3,2.82484,,,,,,,,,,,,,,,,,,,,,,,,,,,,,,,,,-45,-84,1,0,0,response5disk,9,15,-6,-6,1,0,0,rectangle,-6,-6,1,0,0,6,4,"[66,8,178,45,101,63,155,129,12,223,122,291,183,219,79,295,147,14,191,7]",-6,-6,1,0,0,0,14,14,45,1,,,,,,,,,,,,,,,,,,,,,,,
,,,,,,,,,,,,,,,,,,,,,,,,,,,,,,,,,,,,,,,,,,,5e68cedf12215e16f2b39fe3,5fe19771c274b3c312ccae4c,2020-12-22_08h53.16.895,FlowerSimilarity_Experiment,2020.1.2,Win32,60,5fe17d4a51f3a9c1a60f9869,,,,,,,,,,,,,,,,,,,7,FF,,5,2.883175,,,,,,,,,,,,,,,,,,,,,,,,,,,,,,,,,80,-46,1,0,0,response3disk,5,16,-2,1,1,0,0,rectangle,-2,1,1,0,0,6,0,"[66,8,178,45,101,63,155,129,12,223,122,291,183,219,79,295,147,14,191,7]",-2,1,1,0,0,0,15,15,156,1,,,,,,,,,,,,,,,,,,,,,,,
,,,,,,,,,,,,,,,,,,,,,,,,,,,,,,,,,,,,,,,,,,,5e68cedf12215e16f2b39fe3,5fe19771c274b3c312ccae4c,2020-12-22_08h53.16.895,FlowerSimilarity_Experiment,2020.1.2,Win32,60,5fe17d4a51f3a9c1a60f9869,,,,,,,,,,,,,,,,,,,1,PF,,1,2.77572,,,,,,,,,,,,,,,,,,,,,,,,,,,,,,,,,-69,47,1,0,0,response7disk,9,17,-4,2,1,0,0,rectangle,-4,2,1,0,0,6,1,"[66,8,178,45,101,63,155,129,12,223,122,291,183,219,79,295,147,14,191,7]",-4,2,1,0,0,0,16,16,15,1,,,,,,,,,,,,,,,,,,,,,,,
,,,,,,,,,,,,,,,,,,,,,,,,,,,,,,,,,,,,,,,,,,,5e68cedf12215e16f2b39fe3,5fe19771c274b3c312ccae4c,2020-12-22_08h53.16.895,FlowerSimilarity_Experiment,2020.1.2,Win32,60,5fe17d4a51f3a9c1a60f9869,,,,,,,,,,,,,,,,,,,8,PF,,3,3.13691,,,,,,,,,,,,,,,,,,,,,,,,,,,,,,,,,-50,-74,1,0,0,response5disk,3,18,-6,-1,1,0,0,rectangle,-6,-1,1,0,0,6,3,"[66,8,178,45,101,63,155,129,12,223,122,291,183,219,79,295,147,14,191,7]",-6,-1,1,0,0,0,17,17,71,1,,,,,,,,,,,,,,,,,,,,,,,
,,,,,,,,,,,,,,,,,,,,,,,,,,,,,,,,,,,,,,,,,,,5e68cedf12215e16f2b39fe3,5fe19771c274b3c312ccae4c,2020-12-22_08h53.16.895,FlowerSimilarity_Experiment,2020.1.2,Win32,60,5fe17d4a51f3a9c1a60f9869,,,,,,,,,,,,,,,,,,,5,PF,,7,1.500995,,,,,,,,,,,,,,,,,,,,,,,,,,,,,,,,,40,80,1,0,0,response1disk,1,19,10,2,1,0,0,rectangle,10,2,1,0,0,6,3,"[66,8,178,45,101,63,155,129,12,223,122,291,183,219,79,295,147,14,191,7]",10,2,1,0,0,0,18,18,159,1,,,,,,,,,,,,,,,,,,,,,,,
,,,,,,,,,,,,,,,,,,,,,,,,,,,,,,,,,,,,,,,,,,,5e68cedf12215e16f2b39fe3,5fe19771c274b3c312ccae4c,2020-12-22_08h53.16.895,FlowerSimilarity_Experiment,2020.1.2,Win32,60,5fe17d4a51f3a9c1a60f9869,,,,,,,,,,,,,,,,,,,9,PF,,0,1.60167,,,,,,,,,,,,,,,,,,,,,,,,,,,,,,,,,-51,93,1,0,0,response7disk,9,20,4,-3,1,0,0,rectangle,4,-3,1,0,0,6,1,"[66,8,178,45,101,63,155,129,12,223,122,291,183,219,79,295,147,14,191,7]",4,-3,1,0,0,0,19,19,106,1,,,,,,,,,,,,,,,,,,,,,,,
,,,,,,,,,,,,,,,,,,,,,,,,,,,,,,,,,,,,,,,,,,,5e68cedf12215e16f2b39fe3,5fe19771c274b3c312ccae4c,2020-12-22_08h53.16.895,FlowerSimilarity_Experiment,2020.1.2,Win32,60,5fe17d4a51f3a9c1a60f9869,,,,,,,,,,,,,,,,,,,5,FF,,0,1.880695,,,,,,,,,,,,,,,,,,,,,,,,,,,,,,,,,-47,92,1,0,0,response7disk,8,21,2,6,1,0,0,rectangle,2,6,1,0,0,6,1,"[66,8,178,45,101,63,155,129,12,223,122,291,183,219,79,295,147,14,191,7]",2,6,1,0,0,0,20,20,16,1,,,,,,,,,,,,,,,,,,,,,,,
,,,,,,,,,,,,,,,,,,,,,,,,,,,,,,,,,,,,,,,,,,,5e68cedf12215e16f2b39fe3,5fe19771c274b3c312ccae4c,2020-12-22_08h53.16.895,FlowerSimilarity_Experiment,2020.1.2,Win32,60,5fe17d4a51f3a9c1a60f9869,,,,,,,,,,,,,,,,,,,7,PF,,3,1.65327,,,,,,,,,,,,,,,,,,,,,,,,,,,,,,,,,-40,-71,1,0,0,response5disk,4,22,5,-1,1,0,0,rectangle,5,-1,1,0,0,6,4,"[66,8,178,45,101,63,155,129,12,223,122,291,183,219,79,295,147,14,191,7]",5,-1,1,0,0,0,21,21,43,1,,,,,,,,,,,,,,,,,,,,,,,
,,,,,,,,,,,,,,,,,,,,,,,,,,,,,,,,,,,,,,,,,,,5e68cedf12215e16f2b39fe3,5fe19771c274b3c312ccae4c,2020-12-22_08h53.16.895,FlowerSimilarity_Experiment,2020.1.2,Win32,60,5fe17d4a51f3a9c1a60f9869,,,,,,,,,,,,,,,,,,,7,PF,,7,1.384565,,,,,,,,,,,,,,,,,,,,,,,,,,,,,,,,,40,79,1,0,0,response1disk,6,23,6,1,1,0,0,rectangle,6,1,1,0,0,6,7,"[66,8,178,45,101,63,155,129,12,223,122,291,183,219,79,295,147,14,191,7]",6,1,1,0,0,0,22,22,29,1,,,,,,,,,,,,,,,,,,,,,,,
,,,,,,,,,,,,,,,,,,,,,,,,,,,,,,,,,,,,,,,,,,,5e68cedf12215e16f2b39fe3,5fe19771c274b3c312ccae4c,2020-12-22_08h53.16.895,FlowerSimilarity_Experiment,2020.1.2,Win32,60,5fe17d4a51f3a9c1a60f9869,,,,,,,,,,,,,,,,,,,7,PF,,0,1.7346,,,,,,,,,,,,,,,,,,,,,,,,,,,,,,,,,-34,99,1,0,0,response7disk,7,24,5,3,1,0,0,rectangle,5,3,1,0,0,6,2,"[66,8,178,45,101,63,155,129,12,223,122,291,183,219,79,295,147,14,191,7]",5,3,1,0,0,0,23,23,51,1,,,,,,,,,,,,,,,,,,,,,,,
,,,,,,,,,,,,,,,,,,,,,,,,,,,,,,,,,,,,,,,,,,,5e68cedf12215e16f2b39fe3,5fe19771c274b3c312ccae4c,2020-12-22_08h53.16.895,FlowerSimilarity_Experiment,2020.1.2,Win32,60,5fe17d4a51f3a9c1a60f9869,,,,,,,,,,,,,,,,,,,1,FF,,3,8.580155,,,,,,,,,,,,,,,,,,,,,,,,,,,,,,,,,-54,-85,1,0,0,response5disk,6,25,-13,3,1,0,0,rectangle,-13,3,1,0,0,6,6,"[66,8,178,45,101,63,155,129,12,223,122,291,183,219,79,295,147,14,191,7]",-13,3,1,0,0,0,24,24,58,1,,,,,,,,,,,,,,,,,,,,,,,
,,,,,,,,,,,,,,,,,,,,,,,,,,,,,,,,,,,,,,,,,,,5e68cedf12215e16f2b39fe3,5fe19771c274b3c312ccae4c,2020-12-22_08h53.16.895,FlowerSimilarity_Experiment,2020.1.2,Win32,60,5fe17d4a51f3a9c1a60f9869,,,,,,,,,,,,,,,,,,,7,FF,,0,1.363335,,,,,,,,,,,,,,,,,,,,,,,,,,,,,,,,,-51,89,1,0,0,response7disk,3,26,-8,5,1,0,0,rectangle,-8,5,1,0,0,6,7,"[66,8,178,45,101,63,155,129,12,223,122,291,183,219,79,295,147,14,191,7]",-8,5,1,0,0,0,25,25,73,1,,,,,,,,,,,,,,,,,,,,,,,
,,,,,,,,,,,,,,,,,,,,,,,,,,,,,,,,,,,,,,,,,,,5e68cedf12215e16f2b39fe3,5fe19771c274b3c312ccae4c,2020-12-22_08h53.16.895,FlowerSimilarity_Experiment,2020.1.2,Win32,60,5fe17d4a51f3a9c1a60f9869,,,,,,,,,,,,,,,,,,,8,PF,,7,1.334115,,,,,,,,,,,,,,,,,,,,,,,,,,,,,,,,,61,82,1,0,0,response1disk,1,27,13,4,1,0,0,rectangle,13,4,1,0,0,6,2,"[66,8,178,45,101,63,155,129,12,223,122,291,183,219,79,295,147,14,191,7]",13,4,1,0,0,0,26,26,57,1,,,,,,,,,,,,,,,,,,,,,,,
,,,,,,,,,,,,,,,,,,,,,,,,,,,,,,,,,,,,,,,,,,,5e68cedf12215e16f2b39fe3,5fe19771c274b3c312ccae4c,2020-12-22_08h53.16.895,FlowerSimilarity_Experiment,2020.1.2,Win32,60,5fe17d4a51f3a9c1a60f9869,,,,,,,,,,,,,,,,,,,1,FF,,7,1.523095,,,,,,,,,,,,,,,,,,,,,,,,,,,,,,,,,43,87,1,0,0,response1disk,4,28,2,1,1,0,0,rectangle,2,1,1,0,0,6,1,"[66,8,178,45,101,63,155,129,12,223,122,291,183,219,79,295,147,14,191,7]",2,1,1,0,0,0,27,27,135,1,,,,,,,,,,,,,,,,,,,,,,,
,,,,,,,,,,,,,,,,,,,,,,,,,,,,,,,,,,,,,,,,,,,5e68cedf12215e16f2b39fe3,5fe19771c274b3c312ccae4c,2020-12-22_08h53.16.895,FlowerSimilarity_Experiment,2020.1.2,Win32,60,5fe17d4a51f3a9c1a60f9869,,,,,,,,,,,,,,,,,,,6,FF,,0,1.73529,,,,,,,,,,,,,,,,,,,,,,,,,,,,,,,,,-46,96,1,0,0,response7disk,6,29,-1,6,1,0,0,rectangle,-1,6,1,0,0,6,0,"[66,8,178,45,101,63,155,129,12,223,122,291,183,219,79,295,147,14,191,7]",-1,6,1,0,0,0,28,28,91,1,,,,,,,,,,,,,,,,,,,,,,,
,,,,,,,,,,,,,,,,,,,,,,,,,,,,,,,,,,,,,,,,,,,5e68cedf12215e16f2b39fe3,5fe19771c274b3c312ccae4c,2020-12-22_08h53.16.895,FlowerSimilarity_Experiment,2020.1.2,Win32,60,5fe17d4a51f3a9c1a60f9869,,,,,,,,,,,,,,,,,,,4,FF,,7,1.03479,,,,,,,,,,,,,,,,,,,,,,,,,,,,,,,,,48,84,1,0,0,response1disk,5,30,-3,0,1,0,0,rectangle,-3,0,1,0,0,6,5,"[66,8,178,45,101,63,155,129,12,223,122,291,183,219,79,295,147,14,191,7]",-3,0,1,0,0,0,29,29,116,1,,,,,,,,,,,,,,,,,,,,,,,
,,,,,,,,,,,,,,,,,,,,,,,,,,,,,,,,,,,,,,,,,,,5e68cedf12215e16f2b39fe3,5fe19771c274b3c312ccae4c,2020-12-22_08h53.16.895,FlowerSimilarity_Experiment,2020.1.2,Win32,60,5fe17d4a51f3a9c1a60f9869,,,,,,,,,,,,,,,,,,,7,PF,,5,2.486765,,,,,,,,,,,,,,,,,,,,,,,,,,,,,,,,,106,-38,1,0,0,response3disk,5,31,11,4,1,0,0,rectangle,11,4,1,0,0,6,5,"[66,8,178,45,101,63,155,129,12,223,122,291,183,219,79,295,147,14,191,7]",11,4,1,0,0,0,30,30,92,1,,,,,,,,,,,,,,,,,,,,,,,
,,,,,,,,,,,,,,,,,,,,,,,,,,,,,,,,,,,,,,,,,,,5e68cedf12215e16f2b39fe3,5fe19771c274b3c312ccae4c,2020-12-22_08h53.16.895,FlowerSimilarity_Experiment,2020.1.2,Win32,60,5fe17d4a51f3a9c1a60f9869,,,,,,,,,,,,,,,,,,,5,FF,,7,1.196335,,,,,,,,,,,,,,,,,,,,,,,,,,,,,,,,,49,93,1,0,0,response1disk,9,32,16,9,1,0,0,rectangle,16,9,1,0,0,6,3,"[66,8,178,45,101,63,155,129,12,223,122,291,183,219,79,295,147,14,191,7]",16,9,1,0,0,0,31,31,61,1,,,,,,,,,,,,,,,,,,,,,,,
,,,,,,,,,,,,,,,,,,,,,,,,,,,,,,,,,,,,,,,,,,,5e68cedf12215e16f2b39fe3,5fe19771c274b3c312ccae4c,2020-12-22_08h53.16.895,FlowerSimilarity_Experiment,2020.1.2,Win32,60,5fe17d4a51f3a9c1a60f9869,,,,,,,,,,,,,,,,,,,6,PF,,7,1.164045,,,,,,,,,,,,,,,,,,,,,,,,,,,,,,,,,40,89,1,0,0,response1disk,7,33,4,2,1,0,0,rectangle,4,2,1,0,0,6,0,"[66,8,178,45,101,63,155,129,12,223,122,291,183,219,79,295,147,14,191,7]",4,2,1,0,0,0,32,32,50,1,,,,,,,,,,,,,,,,,,,,,,,
,,,,,,,,,,,,,,,,,,,,,,,,,,,,,,,,,,,,,,,,,,,5e68cedf12215e16f2b39fe3,5fe19771c274b3c312ccae4c,2020-12-22_08h53.16.895,FlowerSimilarity_Experiment,2020.1.2,Win32,60,5fe17d4a51f3a9c1a60f9869,,,,,,,,,,,,,,,,,,,7,PF,,5,2.335945,,,,,,,,,,,,,,,,,,,,,,,,,,,,,,,,,78,-46,1,0,0,response3disk,2,34,20,-5,1,0,0,rectangle,20,-5,1,0,0,6,5,"[66,8,178,45,101,63,155,129,12,223,122,291,183,219,79,295,147,14,191,7]",20,-5,1,0,0,0,33,33,32,1,,,,,,,,,,,,,,,,,,,,,,,
,,,,,,,,,,,,,,,,,,,,,,,,,,,,,,,,,,,,,,,,,,,5e68cedf12215e16f2b39fe3,5fe19771c274b3c312ccae4c,2020-12-22_08h53.16.895,FlowerSimilarity_Experiment,2020.1.2,Win32,60,5fe17d4a51f3a9c1a60f9869,,,,,,,,,,,,,,,,,,,2,PF,,7,0.947225,,,,,,,,,,,,,,,,,,,,,,,,,,,,,,,,,33,94,1,0,0,response1disk,6,35,16,-1,1,0,0,rectangle,16,-1,1,0,0,6,5,"[66,8,178,45,101,63,155,129,12,223,122,291,183,219,79,295,147,14,191,7]",16,-1,1,0,0,0,34,34,113,1,,,,,,,,,,,,,,,,,,,,,,,
,,,,,,,,,,,,,,,,,,,,,,,,,,,,,,,,,,,,,,,,,,,5e68cedf12215e16f2b39fe3,5fe19771c274b3c312ccae4c,2020-12-22_08h53.16.895,FlowerSimilarity_Experiment,2020.1.2,Win32,60,5fe17d4a51f3a9c1a60f9869,,,,,,,,,,,,,,,,,,,2,PF,,0,1.47538,,,,,,,,,,,,,,,,,,,,,,,,,,,,,,,,,-51,87,1,0,0,response7disk,2,36,5,-3,1,0,0,rectangle,5,-3,1,0,0,6,5,"[66,8,178,45,101,63,155,129,12,223,122,291,183,219,79,295,147,14,191,7]",5,-3,1,0,0,0,35,35,14,1,,,,,,,,,,,,,,,,,,,,,,,
,,,,,,,,,,,,,,,,,,,,,,,,,,,,,,,,,,,,,,,,,,,5e68cedf12215e16f2b39fe3,5fe19771c274b3c312ccae4c,2020-12-22_08h53.16.895,FlowerSimilarity_Experiment,2020.1.2,Win32,60,5fe17d4a51f3a9c1a60f9869,,,,,,,,,,,,,,,,,,,5,PF,,7,5.727785,,,,,,,,,,,,,,,,,,,,,,,,,,,,,,,,,40,94,1,0,0,response1disk,6,37,9,7,1,0,0,rectangle,9,7,1,0,0,6,5,"[66,8,178,45,101,63,155,129,12,223,122,291,183,219,79,295,147,14,191,7]",9,7,1,0,0,0,36,36,103,1,,,,,,,,,,,,,,,,,,,,,,,
,,,,,,,,,,,,,,,,,,,,,,,,,,,,,,,,,,,,,,,,,,,5e68cedf12215e16f2b39fe3,5fe19771c274b3c312ccae4c,2020-12-22_08h53.16.895,FlowerSimilarity_Experiment,2020.1.2,Win32,60,5fe17d4a51f3a9c1a60f9869,,,,,,,,,,,,,,,,,,,1,FF,,7,1.117895,,,,,,,,,,,,,,,,,,,,,,,,,,,,,,,,,26,72,1,0,0,response1disk,8,38,4,-5,1,0,0,rectangle,4,-5,1,0,0,6,2,"[66,8,178,45,101,63,155,129,12,223,122,291,183,219,79,295,147,14,191,7]",4,-5,1,0,0,0,37,37,27,1,,,,,,,,,,,,,,,,,,,,,,,
,,,,,,,,,,,,,,,,,,,,,,,,,,,,,,,,,,,,,,,,,,,5e68cedf12215e16f2b39fe3,5fe19771c274b3c312ccae4c,2020-12-22_08h53.16.895,FlowerSimilarity_Experiment,2020.1.2,Win32,60,5fe17d4a51f3a9c1a60f9869,,,,,,,,,,,,,,,,,,,6,FF,,4,2.61436,,,,,,,,,,,,,,,,,,,,,,,,,,,,,,,,,38,-93,1,0,0,response3disk,9,39,15,-2,1,0,0,rectangle,15,-2,1,0,0,6,1,"[66,8,178,45,101,63,155,129,12,223,122,291,183,219,79,295,147,14,191,7]",15,-2,1,0,0,0,38,38,160,1,,,,,,,,,,,,,,,,,,,,,,,
,,,,,,,,,,,,,,,,,,,,,,,,,,,,,,,,,,,,,,,,,,,5e68cedf12215e16f2b39fe3,5fe19771c274b3c312ccae4c,2020-12-22_08h53.16.895,FlowerSimilarity_Experiment,2020.1.2,Win32,60,5fe17d4a51f3a9c1a60f9869,,,,,,,,,,,,,,,,,,,6,PF,,7,4.13658,,,,,,,,,,,,,,,,,,,,,,,,,,,,,,,,,47,99,1,0,0,response1disk,8,40,15,10,1,0,0,rectangle,15,10,1,0,0,6,4,"[66,8,178,45,101,63,155,129,12,223,122,291,183,219,79,295,147,14,191,7]",15,10,1,0,0,0,39,39,64,1,,,,,,,,,,,,,,,,,,,,,,,
,,,,,,,,,,,,,,,,,,,,,,,,,,,,,,,,,,,,,,,,,,,5e68cedf12215e16f2b39fe3,5fe19771c274b3c312ccae4c,2020-12-22_08h53.16.895,FlowerSimilarity_Experiment,2020.1.2,Win32,60,5fe17d4a51f3a9c1a60f9869,,,,,,,,,,,,,,,,,,,8,PF,,7,1.186595,,,,,,,,,,,,,,,,,,,,,,,,,,,,,,,,,46,72,1,0,0,response1disk,4,41,14,-2,1,0,0,rectangle,14,-2,1,0,0,6,6,"[66,8,178,45,101,63,155,129,12,223,122,291,183,219,79,295,147,14,191,7]",14,-2,1,0,0,0,40,40,78,1,,,,,,,,,,,,,,,,,,,,,,,
,,,,,,,,,,,,,,,,,,,,,,,,,,,,,,,,,,,,,,,,,,,5e68cedf12215e16f2b39fe3,5fe19771c274b3c312ccae4c,2020-12-22_08h53.16.895,FlowerSimilarity_Experiment,2020.1.2,Win32,60,5fe17d4a51f3a9c1a60f9869,,,,,,,,,,,,,,,,,,,5,PF,,4,1.4642,,,,,,,,,,,,,,,,,,,,,,,,,,,,,,,,,52,-87,1,0,0,response3disk,7,42,-4,3,1,0,0,rectangle,-4,3,1,0,0,6,7,"[66,8,178,45,101,63,155,129,12,223,122,291,183,219,79,295,147,14,191,7]",-4,3,1,0,0,0,41,41,146,1,,,,,,,,,,,,,,,,,,,,,,,
,,,,,,,,,,,,,,,,,,,,,,,,,,,,,,,,,,,,,,,,,,,5e68cedf12215e16f2b39fe3,5fe19771c274b3c312ccae4c,2020-12-22_08h53.16.895,FlowerSimilarity_Experiment,2020.1.2,Win32,60,5fe17d4a51f3a9c1a60f9869,,,,,,,,,,,,,,,,,,,3,PF,,7,1.3514,,,,,,,,,,,,,,,,,,,,,,,,,,,,,,,,,39,78,1,0,0,response1disk,6,43,11,-3,1,0,0,rectangle,11,-3,1,0,0,6,0,"[66,8,178,45,101,63,155,129,12,223,122,291,183,219,79,295,147,14,191,7]",11,-3,1,0,0,0,42,42,47,1,,,,,,,,,,,,,,,,,,,,,,,
,,,,,,,,,,,,,,,,,,,,,,,,,,,,,,,,,,,,,,,,,,,5e68cedf12215e16f2b39fe3,5fe19771c274b3c312ccae4c,2020-12-22_08h53.16.895,FlowerSimilarity_Experiment,2020.1.2,Win32,60,5fe17d4a51f3a9c1a60f9869,,,,,,,,,,,,,,,,,,,4,FF,,5,3.13757,,,,,,,,,,,,,,,,,,,,,,,,,,,,,,,,,79,-44,1,0,0,response3disk,7,44,0,-5,1,0,0,rectangle,0,-5,1,0,0,6,2,"[66,8,178,45,101,63,155,129,12,223,122,291,183,219,79,295,147,14,191,7]",0,-5,1,0,0,0,43,43,87,1,,,,,,,,,,,,,,,,,,,,,,,
,,,,,,,,,,,,,,,,,,,,,,,,,,,,,,,,,,,,,,,,,,,5e68cedf12215e16f2b39fe3,5fe19771c274b3c312ccae4c,2020-12-22_08h53.16.895,FlowerSimilarity_Experiment,2020.1.2,Win32,60,5fe17d4a51f3a9c1a60f9869,,,,,,,,,,,,,,,,,,,2,FF,,7,1.217465,,,,,,,,,,,,,,,,,,,,,,,,,,,,,,,,,46,74,1,0,0,response1disk,8,45,17,8,1,0,0,rectangle,70,-38,1,0,0,5,5,"[66,8,178,45,101,63,155,129,12,223,122,291,183,219,79,295,147,14,191,7]",21,6,1,0,0,0,44,44,62,1,response3disk_3,rectangle,,,,,,,,,,,,,,,,,,,,,
,,,,,,,,,,,,,,,,,,,,,,,,,,,,,,,,,,,,,,,,,,,5e68cedf12215e16f2b39fe3,5fe19771c274b3c312ccae4c,2020-12-22_08h53.16.895,FlowerSimilarity_Experiment,2020.1.2,Win32,60,5fe17d4a51f3a9c1a60f9869,,,,,,,,,,,,,,,,,,,8,FF,,7,1.0711,,,,,,,,,,,,,,,,,,,,,,,,,,,,,,,,,52,109,1,0,0,response1disk,1,46,4,-4,1,0,0,rectangle,4,-4,1,0,0,5,7,"[66,8,178,45,101,63,155,129,12,223,122,291,183,219,79,295,147,14,191,7]",4,-4,1,0,0,0,45,45,20,1,,,,,,,,,,,,,,,,,,,,,,,
,,,,,,,,,,,,,,,,,,,,,,,,,,,,,,,,,,,,,,,,,,,5e68cedf12215e16f2b39fe3,5fe19771c274b3c312ccae4c,2020-12-22_08h53.16.895,FlowerSimilarity_Experiment,2020.1.2,Win32,60,5fe17d4a51f3a9c1a60f9869,,,,,,,,,,,,,,,,,,,7,FF,,7,4.80389,,,,,,,,,,,,,,,,,,,,,,,,,,,,,,,,,60,91,1,0,0,response1disk,8,47,12,4,1,0,0,rectangle,12,4,1,0,0,5,7,"[66,8,178,45,101,63,155,129,12,223,122,291,183,219,79,295,147,14,191,7]",12,4,1,0,0,0,46,46,97,1,,,,,,,,,,,,,,,,,,,,,,,
,,,,,,,,,,,,,,,,,,,,,,,,,,,,,,,,,,,,,,,,,,,5e68cedf12215e16f2b39fe3,5fe19771c274b3c312ccae4c,2020-12-22_08h53.16.895,FlowerSimilarity_Experiment,2020.1.2,Win32,60,5fe17d4a51f3a9c1a60f9869,,,,,,,,,,,,,,,,,,,5,PF,,0,1.605825,,,,,,,,,,,,,,,,,,,,,,,,,,,,,,,,,-50,93,1,0,0,response7disk,8,48,5,1,1,0,0,rectangle,5,1,1,0,0,5,7,"[66,8,178,45,101,63,155,129,12,223,122,291,183,219,79,295,147,14,191,7]",5,1,1,0,0,0,47,47,149,1,,,,,,,,,,,,,,,,,,,,,,,
,,,,,,,,,,,,,,,,,,,,,,,,,,,,,,,,,,,,,,,,,,,5e68cedf12215e16f2b39fe3,5fe19771c274b3c312ccae4c,2020-12-22_08h53.16.895,FlowerSimilarity_Experiment,2020.1.2,Win32,60,5fe17d4a51f3a9c1a60f9869,,,,,,,,,,,,,,,,,,,5,FF,,7,2.003245,,,,,,,,,,,,,,,,,,,,,,,,,,,,,,,,,52,101,1,0,0,response1disk,7,49,-3,3,1,0,0,rectangle,-3,3,1,0,0,5,5,"[66,8,178,45,101,63,155,129,12,223,122,291,183,219,79,295,147,14,191,7]",-3,3,1,0,0,0,48,48,7,1,,,,,,,,,,,,,,,,,,,,,,,
,,,,,,,,,,,,,,,,,,,,,,,,,,,,,,,,,,,,,,,,,,,5e68cedf12215e16f2b39fe3,5fe19771c274b3c312ccae4c,2020-12-22_08h53.16.895,FlowerSimilarity_Experiment,2020.1.2,Win32,60,5fe17d4a51f3a9c1a60f9869,,,,,,,,,,,,,,,,,,,5,PF,,7,0.875975,,,,,,,,,,,,,,,,,,,,,,,,,,,,,,,,,49,89,1,0,0,response1disk,9,50,5,6,1,0,0,rectangle,5,6,1,0,0,5,4,"[66,8,178,45,101,63,155,129,12,223,122,291,183,219,79,295,147,14,191,7]",5,6,1,0,0,0,49,49,136,1,,,,,,,,,,,,,,,,,,,,,,,
,,,,,,,,,,,,,,,,,,,,,,,,,,,,,,,,,,,,,,,,,,,5e68cedf12215e16f2b39fe3,5fe19771c274b3c312ccae4c,2020-12-22_08h53.16.895,FlowerSimilarity_Experiment,2020.1.2,Win32,60,5fe17d4a51f3a9c1a60f9869,,,,,,,,,,,,,,,,,,,4,PF,,4,1.96893,,,,,,,,,,,,,,,,,,,,,,,,,,,,,,,,,38,-92,1,0,0,response3disk,7,51,-5,2,1,0,0,rectangle,-5,2,1,0,0,5,1,"[66,8,178,45,101,63,155,129,12,223,122,291,183,219,79,295,147,14,191,7]",-5,2,1,0,0,0,50,50,38,1,,,,,,,,,,,,,,,,,,,,,,,
,,,,,,,,,,,,,,,,,,,,,,,,,,,,,,,,,,,,,,,,,,,5e68cedf12215e16f2b39fe3,5fe19771c274b3c312ccae4c,2020-12-22_08h53.16.895,FlowerSimilarity_Experiment,2020.1.2,Win32,60,5fe17d4a51f3a9c1a60f9869,,,,,,,,,,,,,,,,,,,9,FF,,7,1.417335,,,,,,,,,,,,,,,,,,,,,,,,,,,,,,,,,37,81,1,0,0,response1disk,5,52,11,-3,1,0,0,rectangle,11,-3,1,0,0,5,7,"[66,8,178,45,101,63,155,129,12,223,122,291,183,219,79,295,147,14,191,7]",11,-3,1,0,0,0,51,51,128,1,,,,,,,,,,,,,,,,,,,,,,,
,,,,,,,,,,,,,,,,,,,,,,,,,,,,,,,,,,,,,,,,,,,5e68cedf12215e16f2b39fe3,5fe19771c274b3c312ccae4c,2020-12-22_08h53.16.895,FlowerSimilarity_Experiment,2020.1.2,Win32,60,5fe17d4a51f3a9c1a60f9869,,,,,,,,,,,,,,,,,,,5,PF,,4,1.23936,,,,,,,,,,,,,,,,,,,,,,,,,,,,,,,,,37,-69,1,0,0,response3disk,3,53,7,0,1,0,0,rectangle,7,0,1,0,0,5,7,"[66,8,178,45,101,63,155,129,12,223,122,291,183,219,79,295,147,14,191,7]",7,0,1,0,0,0,52,52,109,1,,,,,,,,,,,,,,,,,,,,,,,
,,,,,,,,,,,,,,,,,,,,,,,,,,,,,,,,,,,,,,,,,,,5e68cedf12215e16f2b39fe3,5fe19771c274b3c312ccae4c,2020-12-22_08h53.16.895,FlowerSimilarity_Experiment,2020.1.2,Win32,60,5fe17d4a51f3a9c1a60f9869,,,,,,,,,,,,,,,,,,,4,PF,,5,2.609405,,,,,,,,,,,,,,,,,,,,,,,,,,,,,,,,,80,-47,1,0,0,response3disk,2,54,24,-1,1,0,0,rectangle,24,-1,1,0,0,5,5,"[66,8,178,45,101,63,155,129,12,223,122,291,183,219,79,295,147,14,191,7]",24,-1,1,0,0,0,53,53,108,1,,,,,,,,,,,,,,,,,,,,,,,
,,,,,,,,,,,,,,,,,,,,,,,,,,,,,,,,,,,,,,,,,,,5e68cedf12215e16f2b39fe3,5fe19771c274b3c312ccae4c,2020-12-22_08h53.16.895,FlowerSimilarity_Experiment,2020.1.2,Win32,60,5fe17d4a51f3a9c1a60f9869,,,,,,,,,,,,,,,,,,,4,FF,,7,0.990275,,,,,,,,,,,,,,,,,,,,,,,,,,,,,,,,,33,72,1,0,0,response1disk,4,55,9,-1,1,0,0,rectangle,9,-1,1,0,0,5,3,"[66,8,178,45,101,63,155,129,12,223,122,291,183,219,79,295,147,14,191,7]",9,-1,1,0,0,0,54,54,84,1,,,,,,,,,,,,,,,,,,,,,,,
,,,,,,,,,,,,,,,,,,,,,,,,,,,,,,,,,,,,,,,,,,,5e68cedf12215e16f2b39fe3,5fe19771c274b3c312ccae4c,2020-12-22_08h53.16.895,FlowerSimilarity_Experiment,2020.1.2,Win32,60,5fe17d4a51f3a9c1a60f9869,,,,,,,,,,,,,,,,,,,9,FF,,7,3.11905,,,,,,,,,,,,,,,,,,,,,,,,,,,,,,,,,34,82,1,0,0,response1disk,7,56,8,4,1,0,0,rectangle,8,4,1,0,0,5,7,"[66,8,178,45,101,63,155,129,12,223,122,291,183,219,79,295,147,14,191,7]",8,4,1,0,0,0,55,55,100,1,,,,,,,,,,,,,,,,,,,,,,,
,,,,,,,,,,,,,,,,,,,,,,,,,,,,,,,,,,,,,,,,,,,5e68cedf12215e16f2b39fe3,5fe19771c274b3c312ccae4c,2020-12-22_08h53.16.895,FlowerSimilarity_Experiment,2020.1.2,Win32,60,5fe17d4a51f3a9c1a60f9869,,,,,,,,,,,,,,,,,,,6,PF,,7,6.98795,,,,,,,,,,,,,,,,,,,,,,,,,,,,,,,,,56,93,1,0,0,response1disk,2,57,3,0,1,0,0,rectangle,3,0,1,0,0,5,4,"[66,8,178,45,101,63,155,129,12,223,122,291,183,219,79,295,147,14,191,7]",3,0,1,0,0,0,56,56,130,1,,,,,,,,,,,,,,,,,,,,,,,
,,,,,,,,,,,,,,,,,,,,,,,,,,,,,,,,,,,,,,,,,,,5e68cedf12215e16f2b39fe3,5fe19771c274b3c312ccae4c,2020-12-22_08h53.16.895,FlowerSimilarity_Experiment,2020.1.2,Win32,60,5fe17d4a51f3a9c1a60f9869,,,,,,,,,,,,,,,,,,,3,FF,,0,1.54117,,,,,,,,,,,,,,,,,,,,,,,,,,,,,,,,,-48,100,1,0,0,response7disk,3,58,4,2,1,0,0,rectangle,4,2,1,0,0,5,2,"[66,8,178,45,101,63,155,129,12,223,122,291,183,219,79,295,147,14,191,7]",4,2,1,0,0,0,57,57,68,1,,,,,,,,,,,,,,,,,,,,,,,
,,,,,,,,,,,,,,,,,,,,,,,,,,,,,,,,,,,,,,,,,,,5e68cedf12215e16f2b39fe3,5fe19771c274b3c312ccae4c,2020-12-22_08h53.16.895,FlowerSimilarity_Experiment,2020.1.2,Win32,60,5fe17d4a51f3a9c1a60f9869,,,,,,,,,,,,,,,,,,,3,PF,,5,1.40383,,,,,,,,,,,,,,,,,,,,,,,,,,,,,,,,,65,-31,1,0,0,response3disk,5,59,-23,3,1,0,0,rectangle,-23,3,1,0,0,5,1,"[66,8,178,45,101,63,155,129,12,223,122,291,183,219,79,295,147,14,191,7]",-23,3,1,0,0,0,58,58,66,1,,,,,,,,,,,,,,,,,,,,,,,
,,,,,,,,,,,,,,,,,,,,,,,,,,,,,,,,,,,,,,,,,,,5e68cedf12215e16f2b39fe3,5fe19771c274b3c312ccae4c,2020-12-22_08h53.16.895,FlowerSimilarity_Experiment,2020.1.2,Win32,60,5fe17d4a51f3a9c1a60f9869,,,,,,,,,,,,,,,,,,,8,FF,,7,1.17532,,,,,,,,,,,,,,,,,,,,,,,,,,,,,,,,,46,97,1,0,0,response1disk,4,60,12,-5,1,0,0,rectangle,12,-5,1,0,0,5,4,"[66,8,178,45,101,63,155,129,12,223,122,291,183,219,79,295,147,14,191,7]",12,-5,1,0,0,0,59,59,88,1,,,,,,,,,,,,,,,,,,,,,,,
,,,,,,,,,,,,,,,,,,,,,,,,,,,,,,,,,,,,,,,,,,,5e68cedf12215e16f2b39fe3,5fe19771c274b3c312ccae4c,2020-12-22_08h53.16.895,FlowerSimilarity_Experiment,2020.1.2,Win32,60,5fe17d4a51f3a9c1a60f9869,,,,,,,,,,,,,,,,,,,9,PF,,4,2.253065,,,,,,,,,,,,,,,,,,,,,,,,,,,,,,,,,37,-82,1,0,0,response3disk,1,61,16,-6,1,0,0,rectangle,16,-6,1,0,0,5,7,"[66,8,178,45,101,63,155,129,12,223,122,291,183,219,79,295,147,14,191,7]",16,-6,1,0,0,0,60,60,74,1,,,,,,,,,,,,,,,,,,,,,,,
,,,,,,,,,,,,,,,,,,,,,,,,,,,,,,,,,,,,,,,,,,,5e68cedf12215e16f2b39fe3,5fe19771c274b3c312ccae4c,2020-12-22_08h53.16.895,FlowerSimilarity_Experiment,2020.1.2,Win32,60,5fe17d4a51f3a9c1a60f9869,,,,,,,,,,,,,,,,,,,3,FF,,5,2.405605,,,,,,,,,,,,,,,,,,,,,,,,,,,,,,,,,75,-46,1,0,0,response3disk,5,62,20,0,1,0,0,rectangle,20,0,1,0,0,5,4,"[66,8,178,45,101,63,155,129,12,223,122,291,183,219,79,295,147,14,191,7]",20,0,1,0,0,0,61,61,101,1,,,,,,,,,,,,,,,,,,,,,,,
,,,,,,,,,,,,,,,,,,,,,,,,,,,,,,,,,,,,,,,,,,,5e68cedf12215e16f2b39fe3,5fe19771c274b3c312ccae4c,2020-12-22_08h53.16.895,FlowerSimilarity_Experiment,2020.1.2,Win32,60,5fe17d4a51f3a9c1a60f9869,,,,,,,,,,,,,,,,,,,3,FF,,7,1.04995,,,,,,,,,,,,,,,,,,,,,,,,,,,,,,,,,41,79,1,0,0,response1disk,6,63,0,-13,1,0,0,rectangle,91,-42,1,0,0,5,5,"[66,8,178,45,101,63,155,129,12,223,122,291,183,219,79,295,147,14,191,7]",14,7,1,0,0,0,62,62,95,1,response3disk_3,rectangle,,,,,,,,,,,,,,,,,,,,,
,,,,,,,,,,,,,,,,,,,,,,,,,,,,,,,,,,,,,,,,,,,5e68cedf12215e16f2b39fe3,5fe19771c274b3c312ccae4c,2020-12-22_08h53.16.895,FlowerSimilarity_Experiment,2020.1.2,Win32,60,5fe17d4a51f3a9c1a60f9869,,,,,,,,,,,,,,,,,,,6,FF,,4,2.25723,,,,,,,,,,,,,,,,,,,,,,,,,,,,,,,,,60,-71,1,0,0,response3disk,5,64,16,3,1,0,0,rectangle,16,3,1,0,0,5,6,"[66,8,178,45,101,63,155,129,12,223,122,291,183,219,79,295,147,14,191,7]",16,3,1,0,0,0,63,63,126,1,,,,,,,,,,,,,,,,,,,,,,,
,,,,,,,,,,,,,,,,,,,,,,,,,,,,,,,,,,,,,,,,,,,5e68cedf12215e16f2b39fe3,5fe19771c274b3c312ccae4c,2020-12-22_08h53.16.895,FlowerSimilarity_Experiment,2020.1.2,Win32,60,5fe17d4a51f3a9c1a60f9869,,,,,,,,,,,,,,,,,,,1,PF,,7,0.932455,,,,,,,,,,,,,,,,,,,,,,,,,,,,,,,,,49,91,1,0,0,response1disk,7,65,13,10,1,0,0,rectangle,13,10,1,0,0,5,7,"[66,8,178,45,101,63,155,129,12,223,122,291,183,219,79,295,147,14,191,7]",13,10,1,0,0,0,64,64,150,1,,,,,,,,,,,,,,,,,,,,,,,
,,,,,,,,,,,,,,,,,,,,,,,,,,,,,,,,,,,,,,,,,,,5e68cedf12215e16f2b39fe3,5fe19771c274b3c312ccae4c,2020-12-22_08h53.16.895,FlowerSimilarity_Experiment,2020.1.2,Win32,60,5fe17d4a51f3a9c1a60f9869,,,,,,,,,,,,,,,,,,,9,PF,,4,1.417995,,,,,,,,,,,,,,,,,,,,,,,,,,,,,,,,,38,-81,1,0,0,response3disk,6,66,-12,7,1,0,0,rectangle,38,-91,1,0,0,4,4,"[66,8,178,45,101,63,155,129,12,223,122,291,183,219,79,295,147,14,191,7]",-5,-9,1,0,0,0,65,65,148,1,response3disk_3,rectangle,,,,,,,,,,,,,,,,,,,,,
,,,,,,,,,,,,,,,,,,,,,,,,,,,,,,,,,,,,,,,,,,,5e68cedf12215e16f2b39fe3,5fe19771c274b3c312ccae4c,2020-12-22_08h53.16.895,FlowerSimilarity_Experiment,2020.1.2,Win32,60,5fe17d4a51f3a9c1a60f9869,,,,,,,,,,,,,,,,,,,3,PF,,7,1.03838,,,,,,,,,,,,,,,,,,,,,,,,,,,,,,,,,42,87,1,0,0,response1disk,1,67,6,-7,1,0,0,rectangle,6,-7,1,0,0,4,0,"[66,8,178,45,101,63,155,129,12,223,122,291,183,219,79,295,147,14,191,7]",6,-7,1,0,0,0,66,66,96,1,,,,,,,,,,,,,,,,,,,,,,,
,,,,,,,,,,,,,,,,,,,,,,,,,,,,,,,,,,,,,,,,,,,5e68cedf12215e16f2b39fe3,5fe19771c274b3c312ccae4c,2020-12-22_08h53.16.895,FlowerSimilarity_Experiment,2020.1.2,Win32,60,5fe17d4a51f3a9c1a60f9869,,,,,,,,,,,,,,,,,,,7,FF,,0,1.267555,,,,,,,,,,,,,,,,,,,,,,,,,,,,,,,,,-33,71,1,0,0,response7disk,7,68,-2,0,1,0,0,rectangle,-2,0,1,0,0,4,7,"[66,8,178,45,101,63,155,129,12,223,122,291,183,219,79,295,147,14,191,7]",-2,0,1,0,0,0,67,67,34,1,,,,,,,,,,,,,,,,,,,,,,,
,,,,,,,,,,,,,,,,,,,,,,,,,,,,,,,,,,,,,,,,,,,5e68cedf12215e16f2b39fe3,5fe19771c274b3c312ccae4c,2020-12-22_08h53.16.895,FlowerSimilarity_Experiment,2020.1.2,Win32,60,5fe17d4a51f3a9c1a60f9869,,,,,,,,,,,,,,,,,,,9,FF,,4,1.53064,,,,,,,,,,,,,,,,,,,,,,,,,,,,,,,,,46,-100,1,0,0,response3disk,6,69,-1,4,1,0,0,rectangle,-1,4,1,0,0,4,0,"[66,8,178,45,101,63,155,129,12,223,122,291,183,219,79,295,147,14,191,7]",-1,4,1,0,0,0,68,68,117,1,,,,,,,,,,,,,,,,,,,,,,,
,,,,,,,,,,,,,,,,,,,,,,,,,,,,,,,,,,,,,,,,,,,5e68cedf12215e16f2b39fe3,5fe19771c274b3c312ccae4c,2020-12-22_08h53.16.895,FlowerSimilarity_Experiment,2020.1.2,Win32,60,5fe17d4a51f3a9c1a60f9869,,,,,,,,,,,,,,,,,,,8,PF,,4,1.654245,,,,,,,,,,,,,,,,,,,,,,,,,,,,,,,,,34,-65,1,0,0,response3disk,2,70,-1,13,1,0,0,rectangle,-1,13,1,0,0,4,3,"[66,8,178,45,101,63,155,129,12,223,122,291,183,219,79,295,147,14,191,7]",-1,13,1,0,0,0,69,69,83,1,,,,,,,,,,,,,,,,,,,,,,,
,,,,,,,,,,,,,,,,,,,,,,,,,,,,,,,,,,,,,,,,,,,5e68cedf12215e16f2b39fe3,5fe19771c274b3c312ccae4c,2020-12-22_08h53.16.895,FlowerSimilarity_Experiment,2020.1.2,Win32,60,5fe17d4a51f3a9c1a60f9869,,,,,,,,,,,,,,,,,,,4,PF,,7,1.168295,,,,,,,,,,,,,,,,,,,,,,,,,,,,,,,,,19,68,1,0,0,response1disk,6,71,4,12,1,0,0,rectangle,4,12,1,0,0,4,2,"[66,8,178,45,101,63,155,129,12,223,122,291,183,219,79,295,147,14,191,7]",4,12,1,0,0,0,70,70,120,1,,,,,,,,,,,,,,,,,,,,,,,
,,,,,,,,,,,,,,,,,,,,,,,,,,,,,,,,,,,,,,,,,,,5e68cedf12215e16f2b39fe3,5fe19771c274b3c312ccae4c,2020-12-22_08h53.16.895,FlowerSimilarity_Experiment,2020.1.2,Win32,60,5fe17d4a51f3a9c1a60f9869,,,,,,,,,,,,,,,,,,,9,PF,,7,1.83426,,,,,,,,,,,,,,,,,,,,,,,,,,,,,,,,,28,80,1,0,0,response1disk,3,72,3,5,1,0,0,rectangle,3,5,1,0,0,4,2,"[66,8,178,45,101,63,155,129,12,223,122,291,183,219,79,295,147,14,191,7]",3,5,1,0,0,0,71,71,119,1,,,,,,,,,,,,,,,,,,,,,,,
,,,,,,,,,,,,,,,,,,,,,,,,,,,,,,,,,,,,,,,,,,,5e68cedf12215e16f2b39fe3,5fe19771c274b3c312ccae4c,2020-12-22_08h53.16.895,FlowerSimilarity_Experiment,2020.1.2,Win32,60,5fe17d4a51f3a9c1a60f9869,,,,,,,,,,,,,,,,,,,2,FF,,4,2.51858,,,,,,,,,,,,,,,,,,,,,,,,,,,,,,,,,28,-90,1,0,0,response3disk,4,73,1,-5,1,0,0,rectangle,1,-5,1,0,0,4,0,"[66,8,178,45,101,63,155,129,12,223,122,291,183,219,79,295,147,14,191,7]",1,-5,1,0,0,0,72,72,145,1,,,,,,,,,,,,,,,,,,,,,,,
,,,,,,,,,,,,,,,,,,,,,,,,,,,,,,,,,,,,,,,,,,,5e68cedf12215e16f2b39fe3,5fe19771c274b3c312ccae4c,2020-12-22_08h53.16.895,FlowerSimilarity_Experiment,2020.1.2,Win32,60,5fe17d4a51f3a9c1a60f9869,,,,,,,,,,,,,,,,,,,9,FF,,4,1.137745,,,,,,,,,,,,,,,,,,,,,,,,,,,,,,,,,37,-71,1,0,0,response3disk,2,74,-4,1,1,0,0,rectangle,-4,1,1,0,0,4,0,"[66,8,178,45,101,63,155,129,12,223,122,291,183,219,79,295,147,14,191,7]",-4,1,1,0,0,0,73,73,11,1,,,,,,,,,,,,,,,,,,,,,,,
,,,,,,,,,,,,,,,,,,,,,,,,,,,,,,,,,,,,,,,,,,,5e68cedf12215e16f2b39fe3,5fe19771c274b3c312ccae4c,2020-12-22_08h53.16.895,FlowerSimilarity_Experiment,2020.1.2,Win32,60,5fe17d4a51f3a9c1a60f9869,,,,,,,,,,,,,,,,,,,2,FF,,4,1.30159,,,,,,,,,,,,,,,,,,,,,,,,,,,,,,,,,45,-83,1,0,0,response3disk,3,75,2,7,1,0,0,rectangle,2,7,1,0,0,4,6,"[66,8,178,45,101,63,155,129,12,223,122,291,183,219,79,295,147,14,191,7]",2,7,1,0,0,0,74,74,104,1,,,,,,,,,,,,,,,,,,,,,,,
,,,,,,,,,,,,,,,,,,,,,,,,,,,,,,,,,,,,,,,,,,,5e68cedf12215e16f2b39fe3,5fe19771c274b3c312ccae4c,2020-12-22_08h53.16.895,FlowerSimilarity_Experiment,2020.1.2,Win32,60,5fe17d4a51f3a9c1a60f9869,,,,,,,,,,,,,,,,,,,4,PF,,7,2.155855,,,,,,,,,,,,,,,,,,,,,,,,,,,,,,,,,48,84,1,0,0,response1disk,3,76,5,2,1,0,0,rectangle,5,2,1,0,0,4,0,"[66,8,178,45,101,63,155,129,12,223,122,291,183,219,79,295,147,14,191,7]",5,2,1,0,0,0,75,75,89,1,,,,,,,,,,,,,,,,,,,,,,,
,,,,,,,,,,,,,,,,,,,,,,,,,,,,,,,,,,,,,,,,,,,5e68cedf12215e16f2b39fe3,5fe19771c274b3c312ccae4c,2020-12-22_08h53.16.895,FlowerSimilarity_Experiment,2020.1.2,Win32,60,5fe17d4a51f3a9c1a60f9869,,,,,,,,,,,,,,,,,,,2,FF,,7,1.2011,,,,,,,,,,,,,,,,,,,,,,,,,,,,,,,,,41,98,1,0,0,response1disk,1,77,8,6,1,0,0,rectangle,8,6,1,0,0,4,5,"[66,8,178,45,101,63,155,129,12,223,122,291,183,219,79,295,147,14,191,7]",8,6,1,0,0,0,76,76,85,1,,,,,,,,,,,,,,,,,,,,,,,
,,,,,,,,,,,,,,,,,,,,,,,,,,,,,,,,,,,,,,,,,,,5e68cedf12215e16f2b39fe3,5fe19771c274b3c312ccae4c,2020-12-22_08h53.16.895,FlowerSimilarity_Experiment,2020.1.2,Win32,60,5fe17d4a51f3a9c1a60f9869,,,,,,,,,,,,,,,,,,,3,PF,,5,1.333885,,,,,,,,,,,,,,,,,,,,,,,,,,,,,,,,,68,-37,1,0,0,response3disk,2,78,-8,-3,1,0,0,rectangle,-8,-3,1,0,0,4,7,"[66,8,178,45,101,63,155,129,12,223,122,291,183,219,79,295,147,14,191,7]",-8,-3,1,0,0,0,77,77,36,1,,,,,,,,,,,,,,,,,,,,,,,
,,,,,,,,,,,,,,,,,,,,,,,,,,,,,,,,,,,,,,,,,,,5e68cedf12215e16f2b39fe3,5fe19771c274b3c312ccae4c,2020-12-22_08h53.16.895,FlowerSimilarity_Experiment,2020.1.2,Win32,60,5fe17d4a51f3a9c1a60f9869,,,,,,,,,,,,,,,,,,,3,FF,,7,1.41385,,,,,,,,,,,,,,,,,,,,,,,,,,,,,,,,,32,93,1,0,0,response1disk,4,79,0,1,1,0,0,rectangle,36,-91,1,0,0,4,4,"[66,8,178,45,101,63,155,129,12,223,122,291,183,219,79,295,147,14,191,7]",3,-1,1,0,0,0,78,78,110,1,response3disk_3,rectangle,,,,,,,,,,,,,,,,,,,,,
,,,,,,,,,,,,,,,,,,,,,,,,,,,,,,,,,,,,,,,,,,,5e68cedf12215e16f2b39fe3,5fe19771c274b3c312ccae4c,2020-12-22_08h53.16.895,FlowerSimilarity_Experiment,2020.1.2,Win32,60,5fe17d4a51f3a9c1a60f9869,,,,,,,,,,,,,,,,,,,4,PF,,0,1.27161,,,,,,,,,,,,,,,,,,,,,,,,,,,,,,,,,-43,101,1,0,0,response7disk,4,80,-1,4,1,0,0,rectangle,-1,4,1,0,0,4,3,"[66,8,178,45,101,63,155,129,12,223,122,291,183,219,79,295,147,14,191,7]",-1,4,1,0,0,0,79,79,70,1,,,,,,,,,,,,,,,,,,,,,,,
,,,,,,,,,,,,,,,,,,,,,,,,,,,,,,,,,,,,,,,,,,,5e68cedf12215e16f2b39fe3,5fe19771c274b3c312ccae4c,2020-12-22_08h53.16.895,FlowerSimilarity_Experiment,2020.1.2,Win32,60,5fe17d4a51f3a9c1a60f9869,,,,,,,,,,,,,,,,,,,8,FF,,7,2.052445,,,,,,,,,,,,,,,,,,,,,,,,,,,,,,,,,38,89,1,0,0,response1disk,9,81,-4,-6,1,0,0,rectangle,-4,-6,1,0,0,4,2,"[66,8,178,45,101,63,155,129,12,223,122,291,183,219,79,295,147,14,191,7]",-4,-6,1,0,0,0,80,80,105,1,,,,,,,,,,,,,,,,,,,,,,,
,,,,,,,,,,,,,,,,,,,,,,,,,,,,,,,,,,,,,,,,,,,5e68cedf12215e16f2b39fe3,5fe19771c274b3c312ccae4c,2020-12-22_08h53.16.895,FlowerSimilarity_Experiment,2020.1.2,Win32,60,5fe17d4a51f3a9c1a60f9869,,,,,,,,,,,,,,,,,,,1,FF,,7,1.03597,,,,,,,,,,,,,,,,,,,,,,,,,,,,,,,,,29,93,1,0,0,response1disk,7,82,2,-2,1,0,0,rectangle,2,-2,1,0,0,4,3,"[66,8,178,45,101,63,155,129,12,223,122,291,183,219,79,295,147,14,191,7]",2,-2,1,0,0,0,81,81,137,1,,,,,,,,,,,,,,,,,,,,,,,
,,,,,,,,,,,,,,,,,,,,,,,,,,,,,,,,,,,,,,,,,,,5e68cedf12215e16f2b39fe3,5fe19771c274b3c312ccae4c,2020-12-22_08h53.16.895,FlowerSimilarity_Experiment,2020.1.2,Win32,60,5fe17d4a51f3a9c1a60f9869,,,,,,,,,,,,,,,,,,,2,FF,,5,1.87923,,,,,,,,,,,,,,,,,,,,,,,,,,,,,,,,,93,-36,1,0,0,response3disk,5,83,-9,1,1,0,0,rectangle,-9,1,1,0,0,4,7,"[66,8,178,45,101,63,155,129,12,223,122,291,183,219,79,295,147,14,191,7]",-9,1,1,0,0,0,82,82,80,1,,,,,,,,,,,,,,,,,,,,,,,
,,,,,,,,,,,,,,,,,,,,,,,,,,,,,,,,,,,,,,,,,,,5e68cedf12215e16f2b39fe3,5fe19771c274b3c312ccae4c,2020-12-22_08h53.16.895,FlowerSimilarity_Experiment,2020.1.2,Win32,60,5fe17d4a51f3a9c1a60f9869,,,,,,,,,,,,,,,,,,,1,PF,,6,2.687035,,,,,,,,,,,,,,,,,,,,,,,,,,,,,,,,,85,32,1,0,0,response1disk,2,84,-4,8,1,0,0,rectangle,-4,8,1,0,0,4,0,"[66,8,178,45,101,63,155,129,12,223,122,291,183,219,79,295,147,14,191,7]",-4,8,1,0,0,0,83,83,24,1,,,,,,,,,,,,,,,,,,,,,,,
,,,,,,,,,,,,,,,,,,,,,,,,,,,,,,,,,,,,,,,,,,,5e68cedf12215e16f2b39fe3,5fe19771c274b3c312ccae4c,2020-12-22_08h53.16.895,FlowerSimilarity_Experiment,2020.1.2,Win32,60,5fe17d4a51f3a9c1a60f9869,,,,,,,,,,,,,,,,,,,2,PF,,7,1.139845,,,,,,,,,,,,,,,,,,,,,,,,,,,,,,,,,27,83,1,0,0,response1disk,8,85,0,-7,1,0,0,rectangle,0,-7,1,0,0,4,0,"[66,8,178,45,101,63,155,129,12,223,122,291,183,219,79,295,147,14,191,7]",0,-7,1,0,0,0,84,84,52,1,,,,,,,,,,,,,,,,,,,,,,,
,,,,,,,,,,,,,,,,,,,,,,,,,,,,,,,,,,,,,,,,,,,5e68cedf12215e16f2b39fe3,5fe19771c274b3c312ccae4c,2020-12-22_08h53.16.895,FlowerSimilarity_Experiment,2020.1.2,Win32,60,5fe17d4a51f3a9c1a60f9869,,,,,,,,,,,,,,,,,,,4,PF,,7,0.88452,,,,,,,,,,,,,,,,,,,,,,,,,,,,,,,,,45,104,1,0,0,response1disk,9,86,7,-1,1,0,0,rectangle,7,-1,1,0,0,4,6,"[66,8,178,45,101,63,155,129,12,223,122,291,183,219,79,295,147,14,191,7]",7,-1,1,0,0,0,85,85,75,1,,,,,,,,,,,,,,,,,,,,,,,
,,,,,,,,,,,,,,,,,,,,,,,,,,,,,,,,,,,,,,,,,,,5e68cedf12215e16f2b39fe3,5fe19771c274b3c312ccae4c,2020-12-22_08h53.16.895,FlowerSimilarity_Experiment,2020.1.2,Win32,60,5fe17d4a51f3a9c1a60f9869,,,,,,,,,,,,,,,,,,,2,FF,,0,0.936115,,,,,,,,,,,,,,,,,,,,,,,,,,,,,,,,,-56,89,1,0,0,response7disk,2,87,-8,8,1,0,0,rectangle,-8,8,1,0,0,4,4,"[66,8,178,45,101,63,155,129,12,223,122,291,183,219,79,295,147,14,191,7]",-8,8,1,0,0,0,86,86,142,1,,,,,,,,,,,,,,,,,,,,,,,
,,,,,,,,,,,,,,,,,,,,,,,,,,,,,,,,,,,,,,,,,,,5e68cedf12215e16f2b39fe3,5fe19771c274b3c312ccae4c,2020-12-22_08h53.16.895,FlowerSimilarity_Experiment,2020.1.2,Win32,60,5fe17d4a51f3a9c1a60f9869,,,,,,,,,,,,,,,,,,,1,FF,,7,2.14854,,,,,,,,,,,,,,,,,,,,,,,,,,,,,,,,,53,102,1,0,0,response1disk,2,88,2,2,1,0,0,rectangle,2,2,1,0,0,4,3,"[66,8,178,45,101,63,155,129,12,223,122,291,183,219,79,295,147,14,191,7]",2,2,1,0,0,0,87,87,2,1,,,,,,,,,,,,,,,,,,,,,,,
,,,,,,,,,,,,,,,,,,,,,,,,,,,,,,,,,,,,,,,,,,,5e68cedf12215e16f2b39fe3,5fe19771c274b3c312ccae4c,2020-12-22_08h53.16.895,FlowerSimilarity_Experiment,2020.1.2,Win32,60,5fe17d4a51f3a9c1a60f9869,,,,,,,,,,,,,,,,,,,1,PF,,7,4.23859,,,,,,,,,,,,,,,,,,,,,,,,,,,,,,,,,35,82,1,0,0,response1disk,5,89,5,2,1,0,0,rectangle,5,2,1,0,0,4,2,"[66,8,178,45,101,63,155,129,12,223,122,291,183,219,79,295,147,14,191,7]",5,2,1,0,0,0,88,88,28,1,,,,,,,,,,,,,,,,,,,,,,,
,,,,,,,,,,,,,,,,,,,,,,,,,,,,,,,,,,,,,,,,,,,5e68cedf12215e16f2b39fe3,5fe19771c274b3c312ccae4c,2020-12-22_08h53.16.895,FlowerSimilarity_Experiment,2020.1.2,Win32,60,5fe17d4a51f3a9c1a60f9869,,,,,,,,,,,,,,,,,,,4,FF,,7,1.31774,,,,,,,,,,,,,,,,,,,,,,,,,,,,,,,,,45,75,1,0,0,response1disk,6,90,18,-3,1,0,0,rectangle,18,-3,1,0,0,4,1,"[66,8,178,45,101,63,155,129,12,223,122,291,183,219,79,295,147,14,191,7]",18,-3,1,0,0,0,89,89,122,1,,,,,,,,,,,,,,,,,,,,,,,
,,,,,,,,,,,,,,,,,,,,,,,,,,,,,,,,,,,,,,,,,,,5e68cedf12215e16f2b39fe3,5fe19771c274b3c312ccae4c,2020-12-22_08h53.16.895,FlowerSimilarity_Experiment,2020.1.2,Win32,60,5fe17d4a51f3a9c1a60f9869,,,,,,,,,,,,,,,,,,,3,PF,,7,2.38981,,,,,,,,,,,,,,,,,,,,,,,,,,,,,,,,,38,83,1,0,0,response1disk,8,91,12,4,1,0,0,rectangle,12,4,1,0,0,4,5,"[66,8,178,45,101,63,155,129,12,223,122,291,183,219,79,295,147,14,191,7]",12,4,1,0,0,0,90,90,3,1,,,,,,,,,,,,,,,,,,,,,,,
,,,,,,,,,,,,,,,,,,,,,,,,,,,,,,,,,,,,,,,,,,,5e68cedf12215e16f2b39fe3,5fe19771c274b3c312ccae4c,2020-12-22_08h53.16.895,FlowerSimilarity_Experiment,2020.1.2,Win32,60,5fe17d4a51f3a9c1a60f9869,,,,,,,,,,,,,,,,,,,7,PF,,0,1.5339,,,,,,,,,,,,,,,,,,,,,,,,,,,,,,,,,-36,104,1,0,0,response7disk,3,92,7,3,1,0,0,rectangle,7,3,1,0,0,4,2,"[66,8,178,45,101,63,155,129,12,223,122,291,183,219,79,295,147,14,191,7]",7,3,1,0,0,0,91,91,81,1,,,,,,,,,,,,,,,,,,,,,,,
,,,,,,,,,,,,,,,,,,,,,,,,,,,,,,,,,,,,,,,,,,,5e68cedf12215e16f2b39fe3,5fe19771c274b3c312ccae4c,2020-12-22_08h53.16.895,FlowerSimilarity_Experiment,2020.1.2,Win32,60,5fe17d4a51f3a9c1a60f9869,,,,,,,,,,,,,,,,,,,4,PF,,7,1.032435,,,,,,,,,,,,,,,,,,,,,,,,,,,,,,,,,49,82,1,0,0,response1disk,8,93,1,-8,1,0,0,rectangle,1,-8,1,0,0,4,7,"[66,8,178,45,101,63,155,129,12,223,122,291,183,219,79,295,147,14,191,7]",1,-8,1,0,0,0,92,92,124,1,,,,,,,,,,,,,,,,,,,,,,,
,,,,,,,,,,,,,,,,,,,,,,,,,,,,,,,,,,,,,,,,,,,5e68cedf12215e16f2b39fe3,5fe19771c274b3c312ccae4c,2020-12-22_08h53.16.895,FlowerSimilarity_Experiment,2020.1.2,Win32,60,5fe17d4a51f3a9c1a60f9869,,,,,,,,,,,,,,,,,,,8,FF,,6,1.63697,,,,,,,,,,,,,,,,,,,,,,,,,,,,,,,,,93,43,1,0,0,response1disk,7,94,-5,2,1,0,0,rectangle,-5,2,1,0,0,4,1,"[66,8,178,45,101,63,155,129,12,223,122,291,183,219,79,295,147,14,191,7]",-5,2,1,0,0,0,93,93,86,1,,,,,,,,,,,,,,,,,,,,,,,
,,,,,,,,,,,,,,,,,,,,,,,,,,,,,,,,,,,,,,,,,,,5e68cedf12215e16f2b39fe3,5fe19771c274b3c312ccae4c,2020-12-22_08h53.16.895,FlowerSimilarity_Experiment,2020.1.2,Win32,60,5fe17d4a51f3a9c1a60f9869,,,,,,,,,,,,,,,,,,,8,FF,,0,1.488725,,,,,,,,,,,,,,,,,,,,,,,,,,,,,,,,,-34,96,1,0,0,response7disk,8,95,0,4,1,0,0,rectangle,0,4,1,0,0,4,1,"[66,8,178,45,101,63,155,129,12,223,122,291,183,219,79,295,147,14,191,7]",0,4,1,0,0,0,94,94,48,1,,,,,,,,,,,,,,,,,,,,,,,
,,,,,,,,,,,,,,,,,,,,,,,,,,,,,,,,,,,,,,,,,,,5e68cedf12215e16f2b39fe3,5fe19771c274b3c312ccae4c,2020-12-22_08h53.16.895,FlowerSimilarity_Experiment,2020.1.2,Win32,60,5fe17d4a51f3a9c1a60f9869,,,,,,,,,,,,,,,,,,,6,FF,,7,1.12157,,,,,,,,,,,,,,,,,,,,,,,,,,,,,,,,,37,94,1,0,0,response1disk,3,96,11,5,1,0,0,rectangle,11,5,1,0,0,4,1,"[66,8,178,45,101,63,155,129,12,223,122,291,183,219,79,295,147,14,191,7]",11,5,1,0,0,0,95,95,21,1,,,,,,,,,,,,,,,,,,,,,,,
,,,,,,,,,,,,,,,,,,,,,,,,,,,,,,,,,,,,,,,,,,,5e68cedf12215e16f2b39fe3,5fe19771c274b3c312ccae4c,2020-12-22_08h53.16.895,FlowerSimilarity_Experiment,2020.1.2,Win32,60,5fe17d4a51f3a9c1a60f9869,,,,,,,,,,,,,,,,,,,9,PF,,7,1.05454,,,,,,,,,,,,,,,,,,,,,,,,,,,,,,,,,51,93,1,0,0,response1disk,5,97,6,-6,1,0,0,rectangle,6,-6,1,0,0,4,2,"[66,8,178,45,101,63,155,129,12,223,122,291,183,219,79,295,147,14,191,7]",6,-6,1,0,0,0,96,96,134,1,,,,,,,,,,,,,,,,,,,,,,,
,,,,,,,,,,,,,,,,,,,,,,,,,,,,,,,,,,,,,,,,,,,5e68cedf12215e16f2b39fe3,5fe19771c274b3c312ccae4c,2020-12-22_08h53.16.895,FlowerSimilarity_Experiment,2020.1.2,Win32,60,5fe17d4a51f3a9c1a60f9869,,,,,,,,,,,,,,,,,,,3,PF,,7,1.25106,,,,,,,,,,,,,,,,,,,,,,,,,,,,,,,,,30,78,1,0,0,response1disk,4,98,-4,-1,1,0,0,rectangle,-4,-1,1,0,0,4,5,"[66,8,178,45,101,63,155,129,12,223,122,291,183,219,79,295,147,14,191,7]",-4,-1,1,0,0,0,97,97,30,1,,,,,,,,,,,,,,,,,,,,,,,
,,,,,,,,,,,,,,,,,,,,,,,,,,,,,,,,,,,,,,,,,,,5e68cedf12215e16f2b39fe3,5fe19771c274b3c312ccae4c,2020-12-22_08h53.16.895,FlowerSimilarity_Experiment,2020.1.2,Win32,60,5fe17d4a51f3a9c1a60f9869,,,,,,,,,,,,,,,,,,,2,PF,,6,1.28047,,,,,,,,,,,,,,,,,,,,,,,,,,,,,,,,,75,44,1,0,0,response1disk,5,99,7,8,1,0,0,rectangle,7,8,1,0,0,4,6,"[66,8,178,45,101,63,155,129,12,223,122,291,183,219,79,295,147,14,191,7]",7,8,1,0,0,0,98,98,147,1,,,,,,,,,,,,,,,,,,,,,,,
,,,,,,,,,,,,,,,,,,,,,,,,,,,,,,,,,,,,,,,,,,,5e68cedf12215e16f2b39fe3,5fe19771c274b3c312ccae4c,2020-12-22_08h53.16.895,FlowerSimilarity_Experiment,2020.1.2,Win32,60,5fe17d4a51f3a9c1a60f9869,,,,,,,,,,,,,,,,,,,7,PF,,7,2.036125,,,,,,,,,,,,,,,,,,,,,,,,,,,,,,,,,36,75,1,0,0,response1disk,9,100,6,-2,1,0,0,rectangle,6,-2,1,0,0,4,0,"[66,8,178,45,101,63,155,129,12,223,122,291,183,219,79,295,147,14,191,7]",6,-2,1,0,0,0,99,99,10,1,,,,,,,,,,,,,,,,,,,,,,,
,,,,,,,,,,,,,,,,,,,,,,,,,,,,,,,,,,,,,,,,,,,5e68cedf12215e16f2b39fe3,5fe19771c274b3c312ccae4c,2020-12-22_08h53.16.895,FlowerSimilarity_Experiment,2020.1.2,Win32,60,5fe17d4a51f3a9c1a60f9869,,,,,,,,,,,,,,,,,,,5,PF,,7,1.168555,,,,,,,,,,,,,,,,,,,,,,,,,,,,,,,,,36,91,1,0,0,response1disk,4,101,1,4,1,0,0,rectangle,45,80,1,0,0,7,7,"[66,8,178,45,101,63,155,129,12,223,122,291,183,219,79,295,147,14,191,7]",-2,-6,1,0,0,0,100,100,54,1,response1disk_3,rectangle,,,,,,,,,,,,,,,,,,,,,
,,,,,,,,,,,,,,,,,,,,,,,,,,,,,,,,,,,,,,,,,,,5e68cedf12215e16f2b39fe3,5fe19771c274b3c312ccae4c,2020-12-22_08h53.16.895,FlowerSimilarity_Experiment,2020.1.2,Win32,60,5fe17d4a51f3a9c1a60f9869,,,,,,,,,,,,,,,,,,,1,PF,,7,1.18528,,,,,,,,,,,,,,,,,,,,,,,,,,,,,,,,,47,97,1,0,0,response1disk,3,102,14,7,1,0,0,rectangle,14,7,1,0,0,7,2,"[66,8,178,45,101,63,155,129,12,223,122,291,183,219,79,295,147,14,191,7]",14,7,1,0,0,0,101,101,1,1,,,,,,,,,,,,,,,,,,,,,,,
,,,,,,,,,,,,,,,,,,,,,,,,,,,,,,,,,,,,,,,,,,,5e68cedf12215e16f2b39fe3,5fe19771c274b3c312ccae4c,2020-12-22_08h53.16.895,FlowerSimilarity_Experiment,2020.1.2,Win32,60,5fe17d4a51f3a9c1a60f9869,,,,,,,,,,,,,,,,,,,9,FF,,7,1.84755,,,,,,,,,,,,,,,,,,,,,,,,,,,,,,,,,41,65,1,0,0,response1disk,4,103,13,4,1,0,0,rectangle,13,4,1,0,0,7,1,"[66,8,178,45,101,63,155,129,12,223,122,291,183,219,79,295,147,14,191,7]",13,4,1,0,0,0,102,102,60,1,,,,,,,,,,,,,,,,,,,,,,,
,,,,,,,,,,,,,,,,,,,,,,,,,,,,,,,,,,,,,,,,,,,5e68cedf12215e16f2b39fe3,5fe19771c274b3c312ccae4c,2020-12-22_08h53.16.895,FlowerSimilarity_Experiment,2020.1.2,Win32,60,5fe17d4a51f3a9c1a60f9869,,,,,,,,,,,,,,,,,,,7,FF,,7,0.97443,,,,,,,,,,,,,,,,,,,,,,,,,,,,,,,,,34,88,1,0,0,response1disk,6,104,4,4,1,0,0,rectangle,4,4,1,0,0,7,2,"[66,8,178,45,101,63,155,129,12,223,122,291,183,219,79,295,147,14,191,7]",4,4,1,0,0,0,103,103,31,1,,,,,,,,,,,,,,,,,,,,,,,
,,,,,,,,,,,,,,,,,,,,,,,,,,,,,,,,,,,,,,,,,,,5e68cedf12215e16f2b39fe3,5fe19771c274b3c312ccae4c,2020-12-22_08h53.16.895,FlowerSimilarity_Experiment,2020.1.2,Win32,60,5fe17d4a51f3a9c1a60f9869,,,,,,,,,,,,,,,,,,,6,FF,,7,3.76362,,,,,,,,,,,,,,,,,,,,,,,,,,,,,,,,,28,57,1,0,0,response1disk,7,105,3,3,1,0,0,rectangle,3,3,1,0,0,7,7,"[66,8,178,45,101,63,155,129,12,223,122,291,183,219,79,295,147,14,191,7]",3,3,1,0,0,0,104,104,18,1,,,,,,,,,,,,,,,,,,,,,,,
,,,,,,,,,,,,,,,,,,,,,,,,,,,,,,,,,,,,,,,,,,,5e68cedf12215e16f2b39fe3,5fe19771c274b3c312ccae4c,2020-12-22_08h53.16.895,FlowerSimilarity_Experiment,2020.1.2,Win32,60,5fe17d4a51f3a9c1a60f9869,,,,,,,,,,,,,,,,,,,1,PF,,7,1.01786,,,,,,,,,,,,,,,,,,,,,,,,,,,,,,,,,36,80,1,0,0,response1disk,4,106,7,6,1,0,0,rectangle,7,6,1,0,0,7,2,"[66,8,178,45,101,63,155,129,12,223,122,291,183,219,79,295,147,14,191,7]",7,6,1,0,0,0,105,105,139,1,,,,,,,,,,,,,,,,,,,,,,,
,,,,,,,,,,,,,,,,,,,,,,,,,,,,,,,,,,,,,,,,,,,5e68cedf12215e16f2b39fe3,5fe19771c274b3c312ccae4c,2020-12-22_08h53.16.895,FlowerSimilarity_Experiment,2020.1.2,Win32,60,5fe17d4a51f3a9c1a60f9869,,,,,,,,,,,,,,,,,,,3,FF,,0,1.317645,,,,,,,,,,,,,,,,,,,,,,,,,,,,,,,,,-50,91,1,0,0,response7disk,7,107,-13,-2,1,0,0,rectangle,-13,-2,1,0,0,7,3,"[66,8,178,45,101,63,155,129,12,223,122,291,183,219,79,295,147,14,191,7]",-13,-2,1,0,0,0,106,106,118,1,,,,,,,,,,,,,,,,,,,,,,,
,,,,,,,,,,,,,,,,,,,,,,,,,,,,,,,,,,,,,,,,,,,5e68cedf12215e16f2b39fe3,5fe19771c274b3c312ccae4c,2020-12-22_08h53.16.895,FlowerSimilarity_Experiment,2020.1.2,Win32,60,5fe17d4a51f3a9c1a60f9869,,,,,,,,,,,,,,,,,,,4,FF,,1,2.753715,,,,,,,,,,,,,,,,,,,,,,,,,,,,,,,,,-85,42,1,0,0,response7disk,3,108,-2,2,1,0,0,rectangle,-2,2,1,0,0,7,0,"[66,8,178,45,101,63,155,129,12,223,122,291,183,219,79,295,147,14,191,7]",-2,2,1,0,0,0,107,107,77,1,,,,,,,,,,,,,,,,,,,,,,,
,,,,,,,,,,,,,,,,,,,,,,,,,,,,,,,,,,,,,,,,,,,5e68cedf12215e16f2b39fe3,5fe19771c274b3c312ccae4c,2020-12-22_08h53.16.895,FlowerSimilarity_Experiment,2020.1.2,Win32,60,5fe17d4a51f3a9c1a60f9869,,,,,,,,,,,,,,,,,,,8,FF,,7,1.11734,,,,,,,,,,,,,,,,,,,,,,,,,,,,,,,,,44,78,1,0,0,response1disk,6,109,10,0,1,0,0,rectangle,10,0,1,0,0,7,1,"[66,8,178,45,101,63,155,129,12,223,122,291,183,219,79,295,147,14,191,7]",10,0,1,0,0,0,108,108,37,1,,,,,,,,,,,,,,,,,,,,,,,
,,,,,,,,,,,,,,,,,,,,,,,,,,,,,,,,,,,,,,,,,,,5e68cedf12215e16f2b39fe3,5fe19771c274b3c312ccae4c,2020-12-22_08h53.16.895,FlowerSimilarity_Experiment,2020.1.2,Win32,60,5fe17d4a51f3a9c1a60f9869,,,,,,,,,,,,,,,,,,,3,FF,,4,2.10301,,,,,,,,,,,,,,,,,,,,,,,,,,,,,,,,,38,-86,1,0,0,response3disk,2,110,0,4,1,0,0,rectangle,0,4,1,0,0,7,4,"[66,8,178,45,101,63,155,129,12,223,122,291,183,219,79,295,147,14,191,7]",0,4,1,0,0,0,109,109,93,1,,,,,,,,,,,,,,,,,,,,,,,
,,,,,,,,,,,,,,,,,,,,,,,,,,,,,,,,,,,,,,,,,,,5e68cedf12215e16f2b39fe3,5fe19771c274b3c312ccae4c,2020-12-22_08h53.16.895,FlowerSimilarity_Experiment,2020.1.2,Win32,60,5fe17d4a51f3a9c1a60f9869,,,,,,,,,,,,,,,,,,,4,FF,,7,1.276245,,,,,,,,,,,,,,,,,,,,,,,,,,,,,,,,,28,74,1,0,0,response1disk,8,111,-3,3,1,0,0,rectangle,-3,3,1,0,0,7,2,"[66,8,178,45,101,63,155,129,12,223,122,291,183,219,79,295,147,14,191,7]",-3,3,1,0,0,0,110,110,35,1,,,,,,,,,,,,,,,,,,,,,,,
,,,,,,,,,,,,,,,,,,,,,,,,,,,,,,,,,,,,,,,,,,,5e68cedf12215e16f2b39fe3,5fe19771c274b3c312ccae4c,2020-12-22_08h53.16.895,FlowerSimilarity_Experiment,2020.1.2,Win32,60,5fe17d4a51f3a9c1a60f9869,,,,,,,,,,,,,,,,,,,1,FF,,6,1.781415,,,,,,,,,,,,,,,,,,,,,,,,,,,,,,,,,96,35,1,0,0,response1disk,9,112,7,6,1,0,0,rectangle,7,6,1,0,0,7,3,"[66,8,178,45,101,63,155,129,12,223,122,291,183,219,79,295,147,14,191,7]",7,6,1,0,0,0,111,111,123,1,,,,,,,,,,,,,,,,,,,,,,,
,,,,,,,,,,,,,,,,,,,,,,,,,,,,,,,,,,,,,,,,,,,5e68cedf12215e16f2b39fe3,5fe19771c274b3c312ccae4c,2020-12-22_08h53.16.895,FlowerSimilarity_Experiment,2020.1.2,Win32,60,5fe17d4a51f3a9c1a60f9869,,,,,,,,,,,,,,,,,,,6,PF,,0,1.67525,,,,,,,,,,,,,,,,,,,,,,,,,,,,,,,,,-40,87,1,0,0,response7disk,6,113,9,-2,1,0,0,rectangle,9,-2,1,0,0,7,7,"[66,8,178,45,101,63,155,129,12,223,122,291,183,219,79,295,147,14,191,7]",9,-2,1,0,0,0,112,112,0,1,,,,,,,,,,,,,,,,,,,,,,,
,,,,,,,,,,,,,,,,,,,,,,,,,,,,,,,,,,,,,,,,,,,5e68cedf12215e16f2b39fe3,5fe19771c274b3c312ccae4c,2020-12-22_08h53.16.895,FlowerSimilarity_Experiment,2020.1.2,Win32,60,5fe17d4a51f3a9c1a60f9869,,,,,,,,,,,,,,,,,,,7,PF,,7,2.85359,,,,,,,,,,,,,,,,,,,,,,,,,,,,,,,,,34,84,1,0,0,response1disk,1,114,1,6,1,0,0,rectangle,1,6,1,0,0,7,0,"[66,8,178,45,101,63,155,129,12,223,122,291,183,219,79,295,147,14,191,7]",1,6,1,0,0,0,113,113,53,1,,,,,,,,,,,,,,,,,,,,,,,
,,,,,,,,,,,,,,,,,,,,,,,,,,,,,,,,,,,,,,,,,,,5e68cedf12215e16f2b39fe3,5fe19771c274b3c312ccae4c,2020-12-22_08h53.16.895,FlowerSimilarity_Experiment,2020.1.2,Win32,60,5fe17d4a51f3a9c1a60f9869,,,,,,,,,,,,,,,,,,,7,FF,,7,2.68379,,,,,,,,,,,,,,,,,,,,,,,,,,,,,,,,,26,88,1,0,0,response1disk,9,115,13,4,1,0,0,rectangle,13,4,1,0,0,7,5,"[66,8,178,45,101,63,155,129,12,223,122,291,183,219,79,295,147,14,191,7]",13,4,1,0,0,0,114,114,155,1,,,,,,,,,,,,,,,,,,,,,,,
,,,,,,,,,,,,,,,,,,,,,,,,,,,,,,,,,,,,,,,,,,,5e68cedf12215e16f2b39fe3,5fe19771c274b3c312ccae4c,2020-12-22_08h53.16.895,FlowerSimilarity_Experiment,2020.1.2,Win32,60,5fe17d4a51f3a9c1a60f9869,,,,,,,,,,,,,,,,,,,8,PF,,7,0.852375,,,,,,,,,,,,,,,,,,,,,,,,,,,,,,,,,39,99,1,0,0,response1disk,6,116,15,10,1,0,0,rectangle,15,10,1,0,0,7,4,"[66,8,178,45,101,63,155,129,12,223,122,291,183,219,79,295,147,14,191,7]",15,10,1,0,0,0,115,115,161,1,,,,,,,,,,,,,,,,,,,,,,,
,,,,,,,,,,,,,,,,,,,,,,,,,,,,,,,,,,,,,,,,,,,5e68cedf12215e16f2b39fe3,5fe19771c274b3c312ccae4c,2020-12-22_08h53.16.895,FlowerSimilarity_Experiment,2020.1.2,Win32,60,5fe17d4a51f3a9c1a60f9869,,,,,,,,,,,,,,,,,,,5,FF,,0,1.151065,,,,,,,,,,,,,,,,,,,,,,,,,,,,,,,,,-34,93,1,0,0,response7disk,5,117,1,1,1,0,0,rectangle,1,1,1,0,0,7,3,"[66,8,178,45,101,63,155,129,12,223,122,291,183,219,79,295,147,14,191,7]",1,1,1,0,0,0,116,116,19,1,,,,,,,,,,,,,,,,,,,,,,,
,,,,,,,,,,,,,,,,,,,,,,,,,,,,,,,,,,,,,,,,,,,5e68cedf12215e16f2b39fe3,5fe19771c274b3c312ccae4c,2020-12-22_08h53.16.895,FlowerSimilarity_Experiment,2020.1.2,Win32,60,5fe17d4a51f3a9c1a60f9869,,,,,,,,,,,,,,,,,,,2,FF,,6,2.742915,,,,,,,,,,,,,,,,,,,,,,,,,,,,,,,,,79,30,1,0,0,response1disk,9,118,-12,-4,1,0,0,rectangle,-12,-4,1,0,0,7,0,"[66,8,178,45,101,63,155,129,12,223,122,291,183,219,79,295,147,14,191,7]",-12,-4,1,0,0,0,117,117,72,1,,,,,,,,,,,,,,,,,,,,,,,
,,,,,,,,,,,,,,,,,,,,,,,,,,,,,,,,,,,,,,,,,,,5e68cedf12215e16f2b39fe3,5fe19771c274b3c312ccae4c,2020-12-22_08h53.16.895,FlowerSimilarity_Experiment,2020.1.2,Win32,60,5fe17d4a51f3a9c1a60f9869,,,,,,,,,,,,,,,,,,,1,FF,,7,1.820345,,,,,,,,,,,,,,,,,,,,,,,,,,,,,,,,,42,93,1,0,0,response1disk,3,119,22,0,1,0,0,rectangle,22,0,1,0,0,7,3,"[66,8,178,45,101,63,155,129,12,223,122,291,183,219,79,295,147,14,191,7]",22,0,1,0,0,0,118,118,99,1,,,,,,,,,,,,,,,,,,,,,,,
,,,,,,,,,,,,,,,,,,,,,,,,,,,,,,,,,,,,,,,,,,,5e68cedf12215e16f2b39fe3,5fe19771c274b3c312ccae4c,2020-12-22_08h53.16.895,FlowerSimilarity_Experiment,2020.1.2,Win32,60,5fe17d4a51f3a9c1a60f9869,,,,,,,,,,,,,,,,,,,6,PF,,7,7.771685,,,,,,,,,,,,,,,,,,,,,,,,,,,,,,,,,22,80,1,0,0,response1disk,4,120,14,9,1,0,0,rectangle,14,9,1,0,0,7,7,"[66,8,178,45,101,63,155,129,12,223,122,291,183,219,79,295,147,14,191,7]",14,9,1,0,0,0,119,119,33,1,,,,,,,,,,,,,,,,,,,,,,,
,,,,,,,,,,,,,,,,,,,,,,,,,,,,,,,,,,,,,,,,,,,5e68cedf12215e16f2b39fe3,5fe19771c274b3c312ccae4c,2020-12-22_08h53.16.895,FlowerSimilarity_Experiment,2020.1.2,Win32,60,5fe17d4a51f3a9c1a60f9869,,,,,,,,,,,,,,,,,,,5,FF,,7,1.201265,,,,,,,,,,,,,,,,,,,,,,,,,,,,,,,,,51,75,1,0,0,response1disk,2,121,11,4,1,0,0,rectangle,11,4,1,0,0,7,2,"[66,8,178,45,101,63,155,129,12,223,122,291,183,219,79,295,147,14,191,7]",11,4,1,0,0,0,120,120,55,1,,,,,,,,,,,,,,,,,,,,,,,
,,,,,,,,,,,,,,,,,,,,,,,,,,,,,,,,,,,,,,,,,,,5e68cedf12215e16f2b39fe3,5fe19771c274b3c312ccae4c,2020-12-22_08h53.16.895,FlowerSimilarity_Experiment,2020.1.2,Win32,60,5fe17d4a51f3a9c1a60f9869,,,,,,,,,,,,,,,,,,,2,PF,,7,1.08597,,,,,,,,,,,,,,,,,,,,,,,,,,,,,,,,,59,86,1,0,0,response1disk,9,122,0,0,1,0,0,rectangle,-85,28,1,0,0,1,1,"[66,8,178,45,101,63,155,129,12,223,122,291,183,219,79,295,147,14,191,7]",1,-2,1,0,0,0,121,121,39,1,response7disk_3,rectangle,,,,,,,,,,,,,,,,,,,,,
,,,,,,,,,,,,,,,,,,,,,,,,,,,,,,,,,,,,,,,,,,,5e68cedf12215e16f2b39fe3,5fe19771c274b3c312ccae4c,2020-12-22_08h53.16.895,FlowerSimilarity_Experiment,2020.1.2,Win32,60,5fe17d4a51f3a9c1a60f9869,,,,,,,,,,,,,,,,,,,9,FF,,0,1.67063,,,,,,,,,,,,,,,,,,,,,,,,,,,,,,,,,-39,78,1,0,0,response7disk,9,123,0,2,1,0,0,rectangle,0,2,1,0,0,1,6,"[66,8,178,45,101,63,155,129,12,223,122,291,183,219,79,295,147,14,191,7]",0,2,1,0,0,0,122,122,17,1,,,,,,,,,,,,,,,,,,,,,,,
,,,,,,,,,,,,,,,,,,,,,,,,,,,,,,,,,,,,,,,,,,,5e68cedf12215e16f2b39fe3,5fe19771c274b3c312ccae4c,2020-12-22_08h53.16.895,FlowerSimilarity_Experiment,2020.1.2,Win32,60,5fe17d4a51f3a9c1a60f9869,,,,,,,,,,,,,,,,,,,1,PF,,6,1.706865,,,,,,,,,,,,,,,,,,,,,,,,,,,,,,,,,93,41,1,0,0,response1disk,6,124,-13,5,1,0,0,rectangle,-13,5,1,0,0,1,6,"[66,8,178,45,101,63,155,129,12,223,122,291,183,219,79,295,147,14,191,7]",-13,5,1,0,0,0,123,123,144,1,,,,,,,,,,,,,,,,,,,,,,,
,,,,,,,,,,,,,,,,,,,,,,,,,,,,,,,,,,,,,,,,,,,5e68cedf12215e16f2b39fe3,5fe19771c274b3c312ccae4c,2020-12-22_08h53.16.895,FlowerSimilarity_Experiment,2020.1.2,Win32,60,5fe17d4a51f3a9c1a60f9869,,,,,,,,,,,,,,,,,,,5,PF,,6,1.91993,,,,,,,,,,,,,,,,,,,,,,,,,,,,,,,,,90,32,1,0,0,response1disk,2,125,1,-2,1,0,0,rectangle,1,-2,1,0,0,1,4,"[66,8,178,45,101,63,155,129,12,223,122,291,183,219,79,295,147,14,191,7]",1,-2,1,0,0,0,124,124,129,1,,,,,,,,,,,,,,,,,,,,,,,
,,,,,,,,,,,,,,,,,,,,,,,,,,,,,,,,,,,,,,,,,,,5e68cedf12215e16f2b39fe3,5fe19771c274b3c312ccae4c,2020-12-22_08h53.16.895,FlowerSimilarity_Experiment,2020.1.2,Win32,60,5fe17d4a51f3a9c1a60f9869,,,,,,,,,,,,,,,,,,,6,PF,,7,1.373635,,,,,,,,,,,,,,,,,,,,,,,,,,,,,,,,,40,84,1,0,0,response1disk,3,126,17,3,1,0,0,rectangle,17,3,1,0,0,1,6,"[66,8,178,45,101,63,155,129,12,223,122,291,183,219,79,295,147,14,191,7]",17,3,1,0,0,0,125,125,26,1,,,,,,,,,,,,,,,,,,,,,,,
,,,,,,,,,,,,,,,,,,,,,,,,,,,,,,,,,,,,,,,,,,,5e68cedf12215e16f2b39fe3,5fe19771c274b3c312ccae4c,2020-12-22_08h53.16.895,FlowerSimilarity_Experiment,2020.1.2,Win32,60,5fe17d4a51f3a9c1a60f9869,,,,,,,,,,,,,,,,,,,3,FF,,7,1.00054,,,,,,,,,,,,,,,,,,,,,,,,,,,,,,,,,47,86,1,0,0,response1disk,1,127,16,-3,1,0,0,rectangle,16,-3,1,0,0,1,3,"[66,8,178,45,101,63,155,129,12,223,122,291,183,219,79,295,147,14,191,7]",16,-3,1,0,0,0,126,126,125,1,,,,,,,,,,,,,,,,,,,,,,,
,,,,,,,,,,,,,,,,,,,,,,,,,,,,,,,,,,,,,,,,,,,5e68cedf12215e16f2b39fe3,5fe19771c274b3c312ccae4c,2020-12-22_08h53.16.895,FlowerSimilarity_Experiment,2020.1.2,Win32,60,5fe17d4a51f3a9c1a60f9869,,,,,,,,,,,,,,,,,,,8,PF,,0,1.4382,,,,,,,,,,,,,,,,,,,,,,,,,,,,,,,,,-47,103,1,0,0,response7disk,8,128,-2,3,1,0,0,rectangle,-2,3,1,0,0,1,3,"[66,8,178,45,101,63,155,129,12,223,122,291,183,219,79,295,147,14,191,7]",-2,3,1,0,0,0,127,127,153,1,,,,,,,,,,,,,,,,,,,,,,,
,,,,,,,,,,,,,,,,,,,,,,,,,,,,,,,,,,,,,,,,,,,5e68cedf12215e16f2b39fe3,5fe19771c274b3c312ccae4c,2020-12-22_08h53.16.895,FlowerSimilarity_Experiment,2020.1.2,Win32,60,5fe17d4a51f3a9c1a60f9869,,,,,,,,,,,,,,,,,,,9,FF,,7,1.11596,,,,,,,,,,,,,,,,,,,,,,,,,,,,,,,,,39,94,1,0,0,response1disk,8,129,4,-3,1,0,0,rectangle,77,-37,1,0,0,5,5,"[66,8,178,45,101,63,155,129,12,223,122,291,183,219,79,295,147,14,191,7]",10,-3,1,0,0,0,128,128,6,1,response3disk_3,rectangle,,,,,,,,,,,,,,,,,,,,,
,,,,,,,,,,,,,,,,,,,,,,,,,,,,,,,,,,,,,,,,,,,5e68cedf12215e16f2b39fe3,5fe19771c274b3c312ccae4c,2020-12-22_08h53.16.895,FlowerSimilarity_Experiment,2020.1.2,Win32,60,5fe17d4a51f3a9c1a60f9869,,,,,,,,,,,,,,,,,,,4,PF,,7,1.555545,,,,,,,,,,,,,,,,,,,,,,,,,,,,,,,,,54,93,1,0,0,response1disk,1,130,12,8,1,0,0,rectangle,12,8,1,0,0,5,3,"[66,8,178,45,101,63,155,129,12,223,122,291,183,219,79,295,147,14,191,7]",12,8,1,0,0,0,129,129,115,1,,,,,,,,,,,,,,,,,,,,,,,
,,,,,,,,,,,,,,,,,,,,,,,,,,,,,,,,,,,,,,,,,,,5e68cedf12215e16f2b39fe3,5fe19771c274b3c312ccae4c,2020-12-22_08h53.16.895,FlowerSimilarity_Experiment,2020.1.2,Win32,60,5fe17d4a51f3a9c1a60f9869,,,,,,,,,,,,,,,,,,,8,PF,,4,1.98696,,,,,,,,,,,,,,,,,,,,,,,,,,,,,,,,,40,-80,1,0,0,response3disk,7,131,-1,0,1,0,0,rectangle,-1,0,1,0,0,5,0,"[66,8,178,45,101,63,155,129,12,223,122,291,183,219,79,295,147,14,191,7]",-1,0,1,0,0,0,130,130,23,1,,,,,,,,,,,,,,,,,,,,,,,
,,,,,,,,,,,,,,,,,,,,,,,,,,,,,,,,,,,,,,,,,,,5e68cedf12215e16f2b39fe3,5fe19771c274b3c312ccae4c,2020-12-22_08h53.16.895,FlowerSimilarity_Experiment,2020.1.2,Win32,60,5fe17d4a51f3a9c1a60f9869,,,,,,,,,,,,,,,,,,,2,PF,,4,1.33344,,,,,,,,,,,,,,,,,,,,,,,,,,,,,,,,,29,-59,1,0,0,response3disk,7,132,-3,3,1,0,0,rectangle,-3,3,1,0,0,5,6,"[66,8,178,45,101,63,155,129,12,223,122,291,183,219,79,295,147,14,191,7]",-3,3,1,0,0,0,131,131,107,1,,,,,,,,,,,,,,,,,,,,,,,
,,,,,,,,,,,,,,,,,,,,,,,,,,,,,,,,,,,,,,,,,,,5e68cedf12215e16f2b39fe3,5fe19771c274b3c312ccae4c,2020-12-22_08h53.16.895,FlowerSimilarity_Experiment,2020.1.2,Win32,60,5fe17d4a51f3a9c1a60f9869,,,,,,,,,,,,,,,,,,,9,PF,,7,1.27698,,,,,,,,,,,,,,,,,,,,,,,,,,,,,,,,,43,90,1,0,0,response1disk,7,133,13,-8,1,0,0,rectangle,13,-8,1,0,0,5,0,"[66,8,178,45,101,63,155,129,12,223,122,291,183,219,79,295,147,14,191,7]",13,-8,1,0,0,0,132,132,121,1,,,,,,,,,,,,,,,,,,,,,,,
,,,,,,,,,,,,,,,,,,,,,,,,,,,,,,,,,,,,,,,,,,,5e68cedf12215e16f2b39fe3,5fe19771c274b3c312ccae4c,2020-12-22_08h53.16.895,FlowerSimilarity_Experiment,2020.1.2,Win32,60,5fe17d4a51f3a9c1a60f9869,,,,,,,,,,,,,,,,,,,3,PF,,7,1.3808,,,,,,,,,,,,,,,,,,,,,,,,,,,,,,,,,37,76,1,0,0,response1disk,9,134,20,7,1,0,0,rectangle,20,7,1,0,0,5,1,"[66,8,178,45,101,63,155,129,12,223,122,291,183,219,79,295,147,14,191,7]",20,7,1,0,0,0,133,133,79,1,,,,,,,,,,,,,,,,,,,,,,,
,,,,,,,,,,,,,,,,,,,,,,,,,,,,,,,,,,,,,,,,,,,5e68cedf12215e16f2b39fe3,5fe19771c274b3c312ccae4c,2020-12-22_08h53.16.895,FlowerSimilarity_Experiment,2020.1.2,Win32,60,5fe17d4a51f3a9c1a60f9869,,,,,,,,,,,,,,,,,,,9,FF,,3,2.99549,,,,,,,,,,,,,,,,,,,,,,,,,,,,,,,,,-47,-84,1,0,0,response5disk,1,135,9,3,1,0,0,rectangle,9,3,1,0,0,5,0,"[66,8,178,45,101,63,155,129,12,223,122,291,183,219,79,295,147,14,191,7]",9,3,1,0,0,0,134,134,111,1,,,,,,,,,,,,,,,,,,,,,,,
,,,,,,,,,,,,,,,,,,,,,,,,,,,,,,,,,,,,,,,,,,,5e68cedf12215e16f2b39fe3,5fe19771c274b3c312ccae4c,2020-12-22_08h53.16.895,FlowerSimilarity_Experiment,2020.1.2,Win32,60,5fe17d4a51f3a9c1a60f9869,,,,,,,,,,,,,,,,,,,6,PF,,7,1.11869,,,,,,,,,,,,,,,,,,,,,,,,,,,,,,,,,38,63,1,0,0,response1disk,5,136,5,-4,1,0,0,rectangle,5,-4,1,0,0,5,6,"[66,8,178,45,101,63,155,129,12,223,122,291,183,219,79,295,147,14,191,7]",5,-4,1,0,0,0,135,135,59,1,,,,,,,,,,,,,,,,,,,,,,,
,,,,,,,,,,,,,,,,,,,,,,,,,,,,,,,,,,,,,,,,,,,5e68cedf12215e16f2b39fe3,5fe19771c274b3c312ccae4c,2020-12-22_08h53.16.895,FlowerSimilarity_Experiment,2020.1.2,Win32,60,5fe17d4a51f3a9c1a60f9869,,,,,,,,,,,,,,,,,,,6,FF,,7,1.16817,,,,,,,,,,,,,,,,,,,,,,,,,,,,,,,,,46,85,1,0,0,response1disk,2,137,16,5,1,0,0,rectangle,16,5,1,0,0,5,0,"[66,8,178,45,101,63,155,129,12,223,122,291,183,219,79,295,147,14,191,7]",16,5,1,0,0,0,136,136,112,1,,,,,,,,,,,,,,,,,,,,,,,
,,,,,,,,,,,,,,,,,,,,,,,,,,,,,,,,,,,,,,,,,,,5e68cedf12215e16f2b39fe3,5fe19771c274b3c312ccae4c,2020-12-22_08h53.16.895,FlowerSimilarity_Experiment,2020.1.2,Win32,60,5fe17d4a51f3a9c1a60f9869,,,,,,,,,,,,,,,,,,,1,PF,,7,0.954295,,,,,,,,,,,,,,,,,,,,,,,,,,,,,,,,,34,79,1,0,0,response1disk,8,138,7,6,1,0,0,rectangle,7,6,1,0,0,5,0,"[66,8,178,45,101,63,155,129,12,223,122,291,183,219,79,295,147,14,191,7]",7,6,1,0,0,0,137,137,65,1,,,,,,,,,,,,,,,,,,,,,,,
,,,,,,,,,,,,,,,,,,,,,,,,,,,,,,,,,,,,,,,,,,,5e68cedf12215e16f2b39fe3,5fe19771c274b3c312ccae4c,2020-12-22_08h53.16.895,FlowerSimilarity_Experiment,2020.1.2,Win32,60,5fe17d4a51f3a9c1a60f9869,,,,,,,,,,,,,,,,,,,4,FF,,5,3.502365,,,,,,,,,,,,,,,,,,,,,,,,,,,,,,,,,74,-46,1,0,0,response3disk,1,139,11,-4,1,0,0,rectangle,11,-4,1,0,0,5,0,"[66,8,178,45,101,63,155,129,12,223,122,291,183,219,79,295,147,14,191,7]",11,-4,1,0,0,0,138,138,102,1,,,,,,,,,,,,,,,,,,,,,,,
,,,,,,,,,,,,,,,,,,,,,,,,,,,,,,,,,,,,,,,,,,,5e68cedf12215e16f2b39fe3,5fe19771c274b3c312ccae4c,2020-12-22_08h53.16.895,FlowerSimilarity_Experiment,2020.1.2,Win32,60,5fe17d4a51f3a9c1a60f9869,,,,,,,,,,,,,,,,,,,5,FF,,7,1.00885,,,,,,,,,,,,,,,,,,,,,,,,,,,,,,,,,43,95,1,0,0,response1disk,6,140,4,-9,1,0,0,rectangle,4,-9,1,0,0,5,6,"[66,8,178,45,101,63,155,129,12,223,122,291,183,219,79,295,147,14,191,7]",4,-9,1,0,0,0,139,139,12,1,,,,,,,,,,,,,,,,,,,,,,,
,,,,,,,,,,,,,,,,,,,,,,,,,,,,,,,,,,,,,,,,,,,5e68cedf12215e16f2b39fe3,5fe19771c274b3c312ccae4c,2020-12-22_08h53.16.895,FlowerSimilarity_Experiment,2020.1.2,Win32,60,5fe17d4a51f3a9c1a60f9869,,,,,,,,,,,,,,,,,,,4,FF,,5,3.267045,,,,,,,,,,,,,,,,,,,,,,,,,,,,,,,,,80,-35,1,0,0,response3disk,2,141,-7,2,1,0,0,rectangle,-7,2,1,0,0,5,6,"[66,8,178,45,101,63,155,129,12,223,122,291,183,219,79,295,147,14,191,7]",-7,2,1,0,0,0,140,140,13,1,,,,,,,,,,,,,,,,,,,,,,,
,,,,,,,,,,,,,,,,,,,,,,,,,,,,,,,,,,,,,,,,,,,5e68cedf12215e16f2b39fe3,5fe19771c274b3c312ccae4c,2020-12-22_08h53.16.895,FlowerSimilarity_Experiment,2020.1.2,Win32,60,5fe17d4a51f3a9c1a60f9869,,,,,,,,,,,,,,,,,,,6,FF,,5,1.45291,,,,,,,,,,,,,,,,,,,,,,,,,,,,,,,,,88,-36,1,0,0,response3disk,1,142,16,1,1,0,0,rectangle,16,1,1,0,0,5,3,"[66,8,178,45,101,63,155,129,12,223,122,291,183,219,79,295,147,14,191,7]",16,1,1,0,0,0,141,141,5,1,,,,,,,,,,,,,,,,,,,,,,,
,,,,,,,,,,,,,,,,,,,,,,,,,,,,,,,,,,,,,,,,,,,5e68cedf12215e16f2b39fe3,5fe19771c274b3c312ccae4c,2020-12-22_08h53.16.895,FlowerSimilarity_Experiment,2020.1.2,Win32,60,5fe17d4a51f3a9c1a60f9869,,,,,,,,,,,,,,,,,,,3,FF,,7,1.53488,,,,,,,,,,,,,,,,,,,,,,,,,,,,,,,,,35,83,1,0,0,response1disk,9,143,8,3,1,0,0,rectangle,8,3,1,0,0,5,4,"[66,8,178,45,101,63,155,129,12,223,122,291,183,219,79,295,147,14,191,7]",8,3,1,0,0,0,142,142,143,1,,,,,,,,,,,,,,,,,,,,,,,
,,,,,,,,,,,,,,,,,,,,,,,,,,,,,,,,,,,,,,,,,,,5e68cedf12215e16f2b39fe3,5fe19771c274b3c312ccae4c,2020-12-22_08h53.16.895,FlowerSimilarity_Experiment,2020.1.2,Win32,60,5fe17d4a51f3a9c1a60f9869,,,,,,,,,,,,,,,,,,,8,PF,,7,0.928375,,,,,,,,,,,,,,,,,,,,,,,,,,,,,,,,,39,74,1,0,0,response1disk,9,144,2,-2,1,0,0,rectangle,2,-2,1,0,0,5,6,"[66,8,178,45,101,63,155,129,12,223,122,291,183,219,79,295,147,14,191,7]",2,-2,1,0,0,0,143,143,42,1,,,,,,,,,,,,,,,,,,,,,,,
,,,,,,,,,,,,,,,,,,,,,,,,,,,,,,,,,,,,,,,,,,,5e68cedf12215e16f2b39fe3,5fe19771c274b3c312ccae4c,2020-12-22_08h53.16.895,FlowerSimilarity_Experiment,2020.1.2,Win32,60,5fe17d4a51f3a9c1a60f9869,,,,,,,,,,,,,,,,,,,2,PF,,7,2.176915,,,,,,,,,,,,,,,,,,,,,,,,,,,,,,,,,44,85,1,0,0,response1disk,3,145,13,11,1,0,0,rectangle,13,11,1,0,0,5,0,"[66,8,178,45,101,63,155,129,12,223,122,291,183,219,79,295,147,14,191,7]",13,11,1,0,0,0,144,144,69,1,,,,,,,,,,,,,,,,,,,,,,,
,,,,,,,,,,,,,,,,,,,,,,,,,,,,,,,,,,,,,,,,,,,5e68cedf12215e16f2b39fe3,5fe19771c274b3c312ccae4c,2020-12-22_08h53.16.895,FlowerSimilarity_Experiment,2020.1.2,Win32,60,5fe17d4a51f3a9c1a60f9869,,,,,,,,,,,,,,,,,,,2,PF,,5,3.20527,,,,,,,,,,,,,,,,,,,,,,,,,,,,,,,,,84,-42,1,0,0,response3disk,4,146,-1,0,1,0,0,rectangle,-1,0,1,0,0,5,4,"[66,8,178,45,101,63,155,129,12,223,122,291,183,219,79,295,147,14,191,7]",-1,0,1,0,0,0,145,145,127,1,,,,,,,,,,,,,,,,,,,,,,,
,,,,,,,,,,,,,,,,,,,,,,,,,,,,,,,,,,,,,,,,,,,5e68cedf12215e16f2b39fe3,5fe19771c274b3c312ccae4c,2020-12-22_08h53.16.895,FlowerSimilarity_Experiment,2020.1.2,Win32,60,5fe17d4a51f3a9c1a60f9869,,,,,,,,,,,,,,,,,,,2,FF,,7,1.326445,,,,,,,,,,,,,,,,,,,,,,,,,,,,,,,,,35,82,1,0,0,response1disk,6,147,4,8,1,0,0,rectangle,-38,97,1,0,0,0,0,"[66,8,178,45,101,63,155,129,12,223,122,291,183,219,79,295,147,14,191,7]",6,0,1,0,0,0,146,146,40,1,response7disk_3,rectangle,,,,,,,,,,,,,,,,,,,,,
,,,,,,,,,,,,,,,,,,,,,,,,,,,,,,,,,,,,,,,,,,,5e68cedf12215e16f2b39fe3,5fe19771c274b3c312ccae4c,2020-12-22_08h53.16.895,FlowerSimilarity_Experiment,2020.1.2,Win32,60,5fe17d4a51f3a9c1a60f9869,,,,,,,,,,,,,,,,,,,8,FF,,0,1.373865,,,,,,,,,,,,,,,,,,,,,,,,,,,,,,,,,-39,109,1,0,0,response7disk,5,148,3,-2,1,0,0,rectangle,3,-2,1,0,0,0,4,"[66,8,178,45,101,63,155,129,12,223,122,291,183,219,79,295,147,14,191,7]",3,-2,1,0,0,0,147,147,152,1,,,,,,,,,,,,,,,,,,,,,,,
,,,,,,,,,,,,,,,,,,,,,,,,,,,,,,,,,,,,,,,,,,,5e68cedf12215e16f2b39fe3,5fe19771c274b3c312ccae4c,2020-12-22_08h53.16.895,FlowerSimilarity_Experiment,2020.1.2,Win32,60,5fe17d4a51f3a9c1a60f9869,,,,,,,,,,,,,,,,,,,2,PF,,6,1.982435,,,,,,,,,,,,,,,,,,,,,,,,,,,,,,,,,114,40,1,0,0,response1disk,1,149,20,5,1,0,0,rectangle,20,5,1,0,0,0,3,"[66,8,178,45,101,63,155,129,12,223,122,291,183,219,79,295,147,14,191,7]",20,5,1,0,0,0,148,148,9,1,,,,,,,,,,,,,,,,,,,,,,,
,,,,,,,,,,,,,,,,,,,,,,,,,,,,,,,,,,,,,,,,,,,5e68cedf12215e16f2b39fe3,5fe19771c274b3c312ccae4c,2020-12-22_08h53.16.895,FlowerSimilarity_Experiment,2020.1.2,Win32,60,5fe17d4a51f3a9c1a60f9869,,,,,,,,,,,,,,,,,,,3,PF,,1,1.52369,,,,,,,,,,,,,,,,,,,,,,,,,,,,,,,,,-63,29,1,0,0,response7disk,7,150,-6,1,1,0,0,rectangle,-6,1,1,0,0,0,0,"[66,8,178,45,101,63,155,129,12,223,122,291,183,219,79,295,147,14,191,7]",-6,1,1,0,0,0,149,149,41,1,,,,,,,,,,,,,,,,,,,,,,,
,,,,,,,,,,,,,,,,,,,,,,,,,,,,,,,,,,,,,,,,,,,5e68cedf12215e16f2b39fe3,5fe19771c274b3c312ccae4c,2020-12-22_08h53.16.895,FlowerSimilarity_Experiment,2020.1.2,Win32,60,5fe17d4a51f3a9c1a60f9869,,,,,,,,,,,,,,,,,,,7,FF,,4,2.237275,,,,,,,,,,,,,,,,,,,,,,,,,,,,,,,,,49,-106,1,0,0,response3disk,4,151,0,-4,1,0,0,rectangle,0,-4,1,0,0,0,2,"[66,8,178,45,101,63,155,129,12,223,122,291,183,219,79,295,147,14,191,7]",0,-4,1,0,0,0,150,150,158,1,,,,,,,,,,,,,,,,,,,,,,,
,,,,,,,,,,,,,,,,,,,,,,,,,,,,,,,,,,,,,,,,,,,5e68cedf12215e16f2b39fe3,5fe19771c274b3c312ccae4c,2020-12-22_08h53.16.895,FlowerSimilarity_Experiment,2020.1.2,Win32,60,5fe17d4a51f3a9c1a60f9869,,,,,,,,,,,,,,,,,,,7,PF,,6,2.307025,,,,,,,,,,,,,,,,,,,,,,,,,,,,,,,,,62,43,1,0,0,response1disk,8,152,22,6,1,0,0,rectangle,22,6,1,0,0,0,6,"[66,8,178,45,101,63,155,129,12,223,122,291,183,219,79,295,147,14,191,7]",22,6,1,0,0,0,151,151,140,1,,,,,,,,,,,,,,,,,,,,,,,
,,,,,,,,,,,,,,,,,,,,,,,,,,,,,,,,,,,,,,,,,,,5e68cedf12215e16f2b39fe3,5fe19771c274b3c312ccae4c,2020-12-22_08h53.16.895,FlowerSimilarity_Experiment,2020.1.2,Win32,60,5fe17d4a51f3a9c1a60f9869,,,,,,,,,,,,,,,,,,,8,FF,,5,1.349465,,,,,,,,,,,,,,,,,,,,,,,,,,,,,,,,,79,-53,1,0,0,response3disk,3,153,-15,7,1,0,0,rectangle,-15,7,1,0,0,0,1,"[66,8,178,45,101,63,155,129,12,223,122,291,183,219,79,295,147,14,191,7]",-15,7,1,0,0,0,152,152,154,1,,,,,,,,,,,,,,,,,,,,,,,
,,,,,,,,,,,,,,,,,,,,,,,,,,,,,,,,,,,,,,,,,,,5e68cedf12215e16f2b39fe3,5fe19771c274b3c312ccae4c,2020-12-22_08h53.16.895,FlowerSimilarity_Experiment,2020.1.2,Win32,60,5fe17d4a51f3a9c1a60f9869,,,,,,,,,,,,,,,,,,,9,PF,,4,1.57772,,,,,,,,,,,,,,,,,,,,,,,,,,,,,,,,,33,-56,1,0,0,response3disk,4,154,0,-2,1,0,0,rectangle,0,-2,1,0,0,0,1,"[66,8,178,45,101,63,155,129,12,223,122,291,183,219,79,295,147,14,191,7]",0,-2,1,0,0,0,153,153,114,1,,,,,,,,,,,,,,,,,,,,,,,
,,,,,,,,,,,,,,,,,,,,,,,,,,,,,,,,,,,,,,,,,,,5e68cedf12215e16f2b39fe3,5fe19771c274b3c312ccae4c,2020-12-22_08h53.16.895,FlowerSimilarity_Experiment,2020.1.2,Win32,60,5fe17d4a51f3a9c1a60f9869,,,,,,,,,,,,,,,,,,,9,PF,,7,1.02234,,,,,,,,,,,,,,,,,,,,,,,,,,,,,,,,,39,97,1,0,0,response1disk,8,155,3,-2,1,0,0,rectangle,-34,82,1,0,0,0,0,"[66,8,178,45,101,63,155,129,12,223,122,291,183,219,79,295,147,14,191,7]",19,0,1,0,0,0,154,154,67,1,response7disk_3,rectangle,,,,,,,,,,,,,,,,,,,,,
,,,,,,,,,,,,,,,,,,,,,,,,,,,,,,,,,,,,,,,,,,,5e68cedf12215e16f2b39fe3,5fe19771c274b3c312ccae4c,2020-12-22_08h53.16.895,FlowerSimilarity_Experiment,2020.1.2,Win32,60,5fe17d4a51f3a9c1a60f9869,,,,,,,,,,,,,,,,,,,5,FF,,6,1.66942,,,,,,,,,,,,,,,,,,,,,,,,,,,,,,,,,87,45,1,0,0,response1disk,3,156,0,6,1,0,0,rectangle,0,6,1,0,0,0,3,"[66,8,178,45,101,63,155,129,12,223,122,291,183,219,79,295,147,14,191,7]",0,6,1,0,0,0,155,155,25,1,,,,,,,,,,,,,,,,,,,,,,,
,,,,,,,,,,,,,,,,,,,,,,,,,,,,,,,,,,,,,,,,,,,5e68cedf12215e16f2b39fe3,5fe19771c274b3c312ccae4c,2020-12-22_08h53.16.895,FlowerSimilarity_Experiment,2020.1.2,Win32,60,5fe17d4a51f3a9c1a60f9869,,,,,,,,,,,,,,,,,,,5,FF,,5,1.676595,,,,,,,,,,,,,,,,,,,,,,,,,,,,,,,,,92,-33,1,0,0,response3disk,1,157,3,-1,1,0,0,rectangle,3,-1,1,0,0,0,5,"[66,8,178,45,101,63,155,129,12,223,122,291,183,219,79,295,147,14,191,7]",3,-1,1,0,0,0,156,156,131,1,,,,,,,,,,,,,,,,,,,,,,,
,,,,,,,,,,,,,,,,,,,,,,,,,,,,,,,,,,,,,,,,,,,5e68cedf12215e16f2b39fe3,5fe19771c274b3c312ccae4c,2020-12-22_08h53.16.895,FlowerSimilarity_Experiment,2020.1.2,Win32,60,5fe17d4a51f3a9c1a60f9869,,,,,,,,,,,,,,,,,,,6,FF,,7,1.539425,,,,,,,,,,,,,,,,,,,,,,,,,,,,,,,,,55,76,1,0,0,response1disk,4,158,21,3,1,0,0,rectangle,21,3,1,0,0,0,7,"[66,8,178,45,101,63,155,129,12,223,122,291,183,219,79,295,147,14,191,7]",21,3,1,0,0,0,157,157,56,1,,,,,,,,,,,,,,,,,,,,,,,
,,,,,,,,,,,,,,,,,,,,,,,,,,,,,,,,,,,,,,,,,,,5e68cedf12215e16f2b39fe3,5fe19771c274b3c312ccae4c,2020-12-22_08h53.16.895,FlowerSimilarity_Experiment,2020.1.2,Win32,60,5fe17d4a51f3a9c1a60f9869,,,,,,,,,,,,,,,,,,,9,FF,,7,1.10323,,,,,,,,,,,,,,,,,,,,,,,,,,,,,,,,,46,88,1,0,0,response1disk,3,159,7,2,1,0,0,rectangle,7,2,1,0,0,0,1,"[66,8,178,45,101,63,155,129,12,223,122,291,183,219,79,295,147,14,191,7]",7,2,1,0,0,0,158,158,141,1,,,,,,,,,,,,,,,,,,,,,,,
,,,,,,,,,,,,,,,,,,,,,,,,,,,,,,,,,,,,,,,,,,,5e68cedf12215e16f2b39fe3,5fe19771c274b3c312ccae4c,2020-12-22_08h53.16.895,FlowerSimilarity_Experiment,2020.1.2,Win32,60,5fe17d4a51f3a9c1a60f9869,,,,,,,,,,,,,,,,,,,7,FF,,6,1.193765,,,,,,,,,,,,,,,,,,,,,,,,,,,,,,,,,100,50,1,0,0,response1disk,1,160,2,2,1,0,0,rectangle,2,2,1,0,0,0,0,"[66,8,178,45,101,63,155,129,12,223,122,291,183,219,79,295,147,14,191,7]",2,2,1,0,0,0,159,159,132,1,,,,,,,,,,,,,,,,,,,,,,,
,,,,,,,,,,,,,,,,,,,,,,,,,,,,,,,,,,,,,,,,,,,5e68cedf12215e16f2b39fe3,5fe19771c274b3c312ccae4c,2020-12-22_08h53.16.895,FlowerSimilarity_Experiment,2020.1.2,Win32,60,5fe17d4a51f3a9c1a60f9869,,,,,,,,,,,,,,,,,,,5,FF,,7,1.6079,,,,,,,,,,,,,,,,,,,,,,,,,,,,,,,,,37,64,1,0,0,response1disk,4,161,9,5,1,0,0,rectangle,9,5,1,0,0,0,4,"[66,8,178,45,101,63,155,129,12,223,122,291,183,219,79,295,147,14,191,7]",9,5,1,0,0,0,160,160,8,1,,,,,,,,,,,,,,,,,,,,,,,
,,,,,,,,,,,,,,,,,,,,,,,,,,,,,,,,,,,,,,,,,,,5e68cedf12215e16f2b39fe3,5fe19771c274b3c312ccae4c,2020-12-22_08h53.16.895,FlowerSimilarity_Experiment,2020.1.2,Win32,60,5fe17d4a51f3a9c1a60f9869,,,,,,,,,,,,,,,,,,,7,FF,,6,1.69324,,,,,,,,,,,,,,,,,,,,,,,,,,,,,,,,,85,38,1,0,0,response1disk,2,162,20,1,1,0,0,rectangle,20,1,1,0,0,0,6,"[66,8,178,45,101,63,155,129,12,223,122,291,183,219,79,295,147,14,191,7]",20,1,1,0,0,0,161,161,138,1,,,,,,,,,,,,,,,,,,,,,,,
,,,,,,,,,,,,,,,,,,,,,,,,,,,,,,,,,,,,,,,,,,,5e68cedf12215e16f2b39fe3,5fe19771c274b3c312ccae4c,2020-12-22_08h53.16.895,FlowerSimilarity_Experiment,2020.1.2,Win32,60,5fe17d4a51f3a9c1a60f9869,,,,,,,,,,,,,,,,,,,,,,,,,,,,,,,,,,,,,,,,,,,,,,,,,,,,,,,,,,,,,,,,,,,,,,,,,,,,,,,,,,,,,,,,,,0,0,0,0,1,,,,,,,,,,,,,,,,
,,,,,,,,,,,,,,,,,,,,,,,,,,,,,,,,,,,,,,,,,,,5e68cedf12215e16f2b39fe3,5fe19771c274b3c312ccae4c,2020-12-22_08h53.16.895,FlowerSimilarity_Experiment,2020.1.2,Win32,60,5fe17d4a51f3a9c1a60f9869,,,,,,,,,,,,,,,,,,,8,FF,,6,1.08516,,,,,,,,,,,,,,,,,,,,,,,,,,,,,,,,,94,40,1,0,0,response1disk,2,163,29,5,1,0,0,rectangle,29,5,1,0,0,0,4,"[66,8,178,45,101,63,155,129,12,223,122,291,183,219,79,295,147,14,191,7]",29,5,1,0,0,0,0,0,22,1,,,,,,,,,,,,,,,,,,,,,,,
,,,,,,,,,,,,,,,,,,,,,,,,,,,,,,,,,,,,,,,,,,,5e68cedf12215e16f2b39fe3,5fe19771c274b3c312ccae4c,2020-12-22_08h53.16.895,FlowerSimilarity_Experiment,2020.1.2,Win32,60,5fe17d4a51f3a9c1a60f9869,,,,,,,,,,,,,,,,,,,6,PF,,6,2.42009,,,,,,,,,,,,,,,,,,,,,,,,,,,,,,,,,70,36,1,0,0,response1disk,1,164,-3,-2,1,0,0,rectangle,-3,-2,1,0,0,0,5,"[66,8,178,45,101,63,155,129,12,223,122,291,183,219,79,295,147,14,191,7]",-3,-2,1,0,0,0,1,1,46,1,,,,,,,,,,,,,,,,,,,,,,,
,,,,,,,,,,,,,,,,,,,,,,,,,,,,,,,,,,,,,,,,,,,5e68cedf12215e16f2b39fe3,5fe19771c274b3c312ccae4c,2020-12-22_08h53.16.895,FlowerSimilarity_Experiment,2020.1.2,Win32,60,5fe17d4a51f3a9c1a60f9869,,,,,,,,,,,,,,,,,,,1,FF,,0,1.585025,,,,,,,,,,,,,,,,,,,,,,,,,,,,,,,,,-38,81,1,0,0,response7disk,1,165,7,3,1,0,0,rectangle,7,3,1,0,0,0,5,"[66,8,178,45,101,63,155,129,12,223,122,291,183,219,79,295,147,14,191,7]",7,3,1,0,0,0,2,2,151,1,,,,,,,,,,,,,,,,,,,,,,,
,,,,,,,,,,,,,,,,,,,,,,,,,,,,,,,,,,,,,,,,,,,5e68cedf12215e16f2b39fe3,5fe19771c274b3c312ccae4c,2020-12-22_08h53.16.895,FlowerSimilarity_Experiment,2020.1.2,Win32,60,5fe17d4a51f3a9c1a60f9869,,,,,,,,,,,,,,,,,,,4,PF,,5,3.920285,,,,,,,,,,,,,,,,,,,,,,,,,,,,,,,,,65,-34,1,0,0,response3disk,5,166,10,-5,1,0,0,rectangle,10,-5,1,0,0,0,1,"[66,8,178,45,101,63,155,129,12,223,122,291,183,219,79,295,147,14,191,7]",10,-5,1,0,0,0,3,3,49,1,,,,,,,,,,,,,,,,,,,,,,,
,,,,,,,,,,,,,,,,,,,,,,,,,,,,,,,,,,,,,,,,,,,5e68cedf12215e16f2b39fe3,5fe19771c274b3c312ccae4c,2020-12-22_08h53.16.895,FlowerSimilarity_Experiment,2020.1.2,Win32,60,5fe17d4a51f3a9c1a60f9869,,,,,,,,,,,,,,,,,,,3,FF,,7,1.5676,,,,,,,,,,,,,,,,,,,,,,,,,,,,,,,,,45,82,1,0,0,response1disk,8,167,21,6,1,0,0,rectangle,21,6,1,0,0,0,4,"[66,8,178,45,101,63,155,129,12,223,122,291,183,219,79,295,147,14,191,7]",21,6,1,0,0,0,4,4,44,1,,,,,,,,,,,,,,,,,,,,,,,
,,,,,,,,,,,,,,,,,,,,,,,,,,,,,,,,,,,,,,,,,,,5e68cedf12215e16f2b39fe3,5fe19771c274b3c312ccae4c,2020-12-22_08h53.16.895,FlowerSimilarity_Experiment,2020.1.2,Win32,60,5fe17d4a51f3a9c1a60f9869,,,,,,,,,,,,,,,,,,,6,FF,,7,1.768445,,,,,,,,,,,,,,,,,,,,,,,,,,,,,,,,,45,106,1,0,0,response1disk,8,168,6,0,1,0,0,rectangle,6,0,1,0,0,0,1,"[66,8,178,45,101,63,155,129,12,223,122,291,183,219,79,295,147,14,191,7]",6,0,1,0,0,0,5,5,133,1,,,,,,,,,,,,,,,,,,,,,,,
,,,,,,,,,,,,,,,,,,,,,,,,,,,,,,,,,,,,,,,,,,,5e68cedf12215e16f2b39fe3,5fe19771c274b3c312ccae4c,2020-12-22_08h53.16.895,FlowerSimilarity_Experiment,2020.1.2,Win32,60,5fe17d4a51f3a9c1a60f9869,,,,,,,,,,,,,,,,,,,4,FF,,7,2.626,,,,,,,,,,,,,,,,,,,,,,,,,,,,,,,,,45,81,1,0,0,response1disk,9,169,13,-4,1,0,0,rectangle,13,-4,1,0,0,0,4,"[66,8,178,45,101,63,155,129,12,223,122,291,183,219,79,295,147,14,191,7]",13,-4,1,0,0,0,6,6,90,1,,,,,,,,,,,,,,,,,,,,,,,
,,,,,,,,,,,,,,,,,,,,,,,,,,,,,,,,,,,,,,,,,,,5e68cedf12215e16f2b39fe3,5fe19771c274b3c312ccae4c,2020-12-22_08h53.16.895,FlowerSimilarity_Experiment,2020.1.2,Win32,60,5fe17d4a51f3a9c1a60f9869,,,,,,,,,,,,,,,,,,,8,PF,,0,1.18301,,,,,,,,,,,,,,,,,,,,,,,,,,,,,,,,,-48,98,1,0,0,response7disk,5,170,14,5,1,0,0,rectangle,14,5,1,0,0,0,0,"[66,8,178,45,101,63,155,129,12,223,122,291,183,219,79,295,147,14,191,7]",14,5,1,0,0,0,7,7,98,1,,,,,,,,,,,,,,,,,,,,,,,
,,,,,,,,,,,,,,,,,,,,,,,,,,,,,,,,,,,,,,,,,,,5e68cedf12215e16f2b39fe3,5fe19771c274b3c312ccae4c,2020-12-22_08h53.16.895,FlowerSimilarity_Experiment,2020.1.2,Win32,60,5fe17d4a51f3a9c1a60f9869,,,,,,,,,,,,,,,,,,,1,FF,,7,1.650295,,,,,,,,,,,,,,,,,,,,,,,,,,,,,,,,,45,91,1,0,0,response1disk,5,171,10,-11,1,0,0,rectangle,10,-11,1,0,0,0,1,"[66,8,178,45,101,63,155,129,12,223,122,291,183,219,79,295,147,14,191,7]",10,-11,1,0,0,0,8,8,82,1,,,,,,,,,,,,,,,,,,,,,,,
,,,,,,,,,,,,,,,,,,,,,,,,,,,,,,,,,,,,,,,,,,,5e68cedf12215e16f2b39fe3,5fe19771c274b3c312ccae4c,2020-12-22_08h53.16.895,FlowerSimilarity_Experiment,2020.1.2,Win32,60,5fe17d4a51f3a9c1a60f9869,,,,,,,,,,,,,,,,,,,2,FF,,4,2.16873,,,,,,,,,,,,,,,,,,,,,,,,,,,,,,,,,37,-94,1,0,0,response3disk,7,172,3,10,1,0,0,rectangle,3,10,1,0,0,0,5,"[66,8,178,45,101,63,155,129,12,223,122,291,183,219,79,295,147,14,191,7]",3,10,1,0,0,0,9,9,63,1,,,,,,,,,,,,,,,,,,,,,,,
,,,,,,,,,,,,,,,,,,,,,,,,,,,,,,,,,,,,,,,,,,,5e68cedf12215e16f2b39fe3,5fe19771c274b3c312ccae4c,2020-12-22_08h53.16.895,FlowerSimilarity_Experiment,2020.1.2,Win32,60,5fe17d4a51f3a9c1a60f9869,,,,,,,,,,,,,,,,,,,5,PF,,0,1.20152,,,,,,,,,,,,,,,,,,,,,,,,,,,,,,,,,-54,96,1,0,0,response7disk,5,173,-6,7,1,0,0,rectangle,-6,7,1,0,0,0,2,"[66,8,178,45,101,63,155,129,12,223,122,291,183,219,79,295,147,14,191,7]",-6,7,1,0,0,0,10,10,94,1,,,,,,,,,,,,,,,,,,,,,,,
,,,,,,,,,,,,,,,,,,,,,,,,,,,,,,,,,,,,,,,,,,,5e68cedf12215e16f2b39fe3,5fe19771c274b3c312ccae4c,2020-12-22_08h53.16.895,FlowerSimilarity_Experiment,2020.1.2,Win32,60,5fe17d4a51f3a9c1a60f9869,,,,,,,,,,,,,,,,,,,1,PF,,0,1.091015,,,,,,,,,,,,,,,,,,,,,,,,,,,,,,,,,-35,98,1,0,0,response7disk,1,174,6,9,1,0,0,rectangle,6,9,1,0,0,0,4,"[66,8,178,45,101,63,155,129,12,223,122,291,183,219,79,295,147,14,191,7]",6,9,1,0,0,0,11,11,76,1,,,,,,,,,,,,,,,,,,,,,,,
,,,,,,,,,,,,,,,,,,,,,,,,,,,,,,,,,,,,,,,,,,,5e68cedf12215e16f2b39fe3,5fe19771c274b3c312ccae4c,2020-12-22_08h53.16.895,FlowerSimilarity_Experiment,2020.1.2,Win32,60,5fe17d4a51f3a9c1a60f9869,,,,,,,,,,,,,,,,,,,3,PF,,0,1.05189,,,,,,,,,,,,,,,,,,,,,,,,,,,,,,,,,-44,86,1,0,0,response7disk,3,175,11,-14,1,0,0,rectangle,11,-14,1,0,0,0,6,"[66,8,178,45,101,63,155,129,12,223,122,291,183,219,79,295,147,14,191,7]",11,-14,1,0,0,0,12,12,4,1,,,,,,,,,,,,,,,,,,,,,,,
,,,,,,,,,,,,,,,,,,,,,,,,,,,,,,,,,,,,,,,,,,,5e68cedf12215e16f2b39fe3,5fe19771c274b3c312ccae4c,2020-12-22_08h53.16.895,FlowerSimilarity_Experiment,2020.1.2,Win32,60,5fe17d4a51f3a9c1a60f9869,,,,,,,,,,,,,,,,,,,9,PF,,4,1.990895,,,,,,,,,,,,,,,,,,,,,,,,,,,,,,,,,34,-89,1,0,0,response3disk,2,176,3,11,1,0,0,rectangle,3,11,1,0,0,0,6,"[66,8,178,45,101,63,155,129,12,223,122,291,183,219,79,295,147,14,191,7]",3,11,1,0,0,0,13,13,157,1,,,,,,,,,,,,,,,,,,,,,,,
,,,,,,,,,,,,,,,,,,,,,,,,,,,,,,,,,,,,,,,,,,,5e68cedf12215e16f2b39fe3,5fe19771c274b3c312ccae4c,2020-12-22_08h53.16.895,FlowerSimilarity_Experiment,2020.1.2,Win32,60,5fe17d4a51f3a9c1a60f9869,,,,,,,,,,,,,,,,,,,6,PF,,0,1.38621,,,,,,,,,,,,,,,,,,,,,,,,,,,,,,,,,-46,91,1,0,0,response7disk,9,177,11,-5,1,0,0,rectangle,11,-5,1,0,0,0,4,"[66,8,178,45,101,63,155,129,12,223,122,291,183,219,79,295,147,14,191,7]",11,-5,1,0,0,0,14,14,45,1,,,,,,,,,,,,,,,,,,,,,,,
,,,,,,,,,,,,,,,,,,,,,,,,,,,,,,,,,,,,,,,,,,,5e68cedf12215e16f2b39fe3,5fe19771c274b3c312ccae4c,2020-12-22_08h53.16.895,FlowerSimilarity_Experiment,2020.1.2,Win32,60,5fe17d4a51f3a9c1a60f9869,,,,,,,,,,,,,,,,,,,7,FF,,4,1.93456,,,,,,,,,,,,,,,,,,,,,,,,,,,,,,,,,43,-67,1,0,0,response3disk,5,178,0,7,1,0,0,rectangle,-41,96,1,0,0,0,0,"[66,8,178,45,101,63,155,129,12,223,122,291,183,219,79,295,147,14,191,7]",10,-1,1,0,0,0,15,15,156,1,response7disk_3,rectangle,,,,,,,,,,,,,,,,,,,,,
,,,,,,,,,,,,,,,,,,,,,,,,,,,,,,,,,,,,,,,,,,,5e68cedf12215e16f2b39fe3,5fe19771c274b3c312ccae4c,2020-12-22_08h53.16.895,FlowerSimilarity_Experiment,2020.1.2,Win32,60,5fe17d4a51f3a9c1a60f9869,,,,,,,,,,,,,,,,,,,1,PF,,6,1.282625,,,,,,,,,,,,,,,,,,,,,,,,,,,,,,,,,83,38,1,0,0,response1disk,9,179,-5,-6,1,0,0,rectangle,-5,-6,1,0,0,0,1,"[66,8,178,45,101,63,155,129,12,223,122,291,183,219,79,295,147,14,191,7]",-5,-6,1,0,0,0,16,16,15,1,,,,,,,,,,,,,,,,,,,,,,,
,,,,,,,,,,,,,,,,,,,,,,,,,,,,,,,,,,,,,,,,,,,5e68cedf12215e16f2b39fe3,5fe19771c274b3c312ccae4c,2020-12-22_08h53.16.895,FlowerSimilarity_Experiment,2020.1.2,Win32,60,5fe17d4a51f3a9c1a60f9869,,,,,,,,,,,,,,,,,,,8,PF,,7,1.284505,,,,,,,,,,,,,,,,,,,,,,,,,,,,,,,,,44,76,1,0,0,response1disk,3,180,8,-3,1,0,0,rectangle,8,-3,1,0,0,0,3,"[66,8,178,45,101,63,155,129,12,223,122,291,183,219,79,295,147,14,191,7]",8,-3,1,0,0,0,17,17,71,1,,,,,,,,,,,,,,,,,,,,,,,
,,,,,,,,,,,,,,,,,,,,,,,,,,,,,,,,,,,,,,,,,,,5e68cedf12215e16f2b39fe3,5fe19771c274b3c312ccae4c,2020-12-22_08h53.16.895,FlowerSimilarity_Experiment,2020.1.2,Win32,60,5fe17d4a51f3a9c1a60f9869,,,,,,,,,,,,,,,,,,,5,PF,,6,1.5107,,,,,,,,,,,,,,,,,,,,,,,,,,,,,,,,,103,43,1,0,0,response1disk,1,181,-4,5,1,0,0,rectangle,-4,5,1,0,0,0,3,"[66,8,178,45,101,63,155,129,12,223,122,291,183,219,79,295,147,14,191,7]",-4,5,1,0,0,0,18,18,159,1,,,,,,,,,,,,,,,,,,,,,,,
,,,,,,,,,,,,,,,,,,,,,,,,,,,,,,,,,,,,,,,,,,,5e68cedf12215e16f2b39fe3,5fe19771c274b3c312ccae4c,2020-12-22_08h53.16.895,FlowerSimilarity_Experiment,2020.1.2,Win32,60,5fe17d4a51f3a9c1a60f9869,,,,,,,,,,,,,,,,,,,9,PF,,4,1.4843,,,,,,,,,,,,,,,,,,,,,,,,,,,,,,,,,45,-83,1,0,0,response3disk,9,182,11,0,1,0,0,rectangle,11,0,1,0,0,0,1,"[66,8,178,45,101,63,155,129,12,223,122,291,183,219,79,295,147,14,191,7]",11,0,1,0,0,0,19,19,106,1,,,,,,,,,,,,,,,,,,,,,,,
,,,,,,,,,,,,,,,,,,,,,,,,,,,,,,,,,,,,,,,,,,,5e68cedf12215e16f2b39fe3,5fe19771c274b3c312ccae4c,2020-12-22_08h53.16.895,FlowerSimilarity_Experiment,2020.1.2,Win32,60,5fe17d4a51f3a9c1a60f9869,,,,,,,,,,,,,,,,,,,5,FF,,0,1.367635,,,,,,,,,,,,,,,,,,,,,,,,,,,,,,,,,-41,76,1,0,0,response7disk,8,183,-8,5,1,0,0,rectangle,-95,42,1,0,0,1,1,"[66,8,178,45,101,63,155,129,12,223,122,291,183,219,79,295,147,14,191,7]",16,2,1,0,0,0,20,20,16,1,response7disk_3,rectangle,,,,,,,,,,,,,,,,,,,,,
,,,,,,,,,,,,,,,,,,,,,,,,,,,,,,,,,,,,,,,,,,,5e68cedf12215e16f2b39fe3,5fe19771c274b3c312ccae4c,2020-12-22_08h53.16.895,FlowerSimilarity_Experiment,2020.1.2,Win32,60,5fe17d4a51f3a9c1a60f9869,,,,,,,,,,,,,,,,,,,7,PF,,4,1.485145,,,,,,,,,,,,,,,,,,,,,,,,,,,,,,,,,42,-89,1,0,0,response3disk,4,184,10,-2,1,0,0,rectangle,10,-2,1,0,0,1,4,"[66,8,178,45,101,63,155,129,12,223,122,291,183,219,79,295,147,14,191,7]",10,-2,1,0,0,0,21,21,43,1,,,,,,,,,,,,,,,,,,,,,,,
,,,,,,,,,,,,,,,,,,,,,,,,,,,,,,,,,,,,,,,,,,,5e68cedf12215e16f2b39fe3,5fe19771c274b3c312ccae4c,2020-12-22_08h53.16.895,FlowerSimilarity_Experiment,2020.1.2,Win32,60,5fe17d4a51f3a9c1a60f9869,,,,,,,,,,,,,,,,,,,7,PF,,7,1.490775,,,,,,,,,,,,,,,,,,,,,,,,,,,,,,,,,70,103,1,0,0,response1disk,6,185,9,1,1,0,0,rectangle,9,1,1,0,0,1,7,"[66,8,178,45,101,63,155,129,12,223,122,291,183,219,79,295,147,14,191,7]",9,1,1,0,0,0,22,22,29,1,,,,,,,,,,,,,,,,,,,,,,,
,,,,,,,,,,,,,,,,,,,,,,,,,,,,,,,,,,,,,,,,,,,5e68cedf12215e16f2b39fe3,5fe19771c274b3c312ccae4c,2020-12-22_08h53.16.895,FlowerSimilarity_Experiment,2020.1.2,Win32,60,5fe17d4a51f3a9c1a60f9869,,,,,,,,,,,,,,,,,,,7,PF,,1,1.949775,,,,,,,,,,,,,,,,,,,,,,,,,,,,,,,,,-87,37,1,0,0,response7disk,7,186,-11,4,1,0,0,rectangle,-11,4,1,0,0,1,2,"[66,8,178,45,101,63,155,129,12,223,122,291,183,219,79,295,147,14,191,7]",-11,4,1,0,0,0,23,23,51,1,,,,,,,,,,,,,,,,,,,,,,,
,,,,,,,,,,,,,,,,,,,,,,,,,,,,,,,,,,,,,,,,,,,5e68cedf12215e16f2b39fe3,5fe19771c274b3c312ccae4c,2020-12-22_08h53.16.895,FlowerSimilarity_Experiment,2020.1.2,Win32,60,5fe17d4a51f3a9c1a60f9869,,,,,,,,,,,,,,,,,,,1,FF,,6,1.40553,,,,,,,,,,,,,,,,,,,,,,,,,,,,,,,,,95,30,1,0,0,response1disk,6,187,2,-2,1,0,0,rectangle,2,-2,1,0,0,1,6,"[66,8,178,45,101,63,155,129,12,223,122,291,183,219,79,295,147,14,191,7]",2,-2,1,0,0,0,24,24,58,1,,,,,,,,,,,,,,,,,,,,,,,
,,,,,,,,,,,,,,,,,,,,,,,,,,,,,,,,,,,,,,,,,,,5e68cedf12215e16f2b39fe3,5fe19771c274b3c312ccae4c,2020-12-22_08h53.16.895,FlowerSimilarity_Experiment,2020.1.2,Win32,60,5fe17d4a51f3a9c1a60f9869,,,,,,,,,,,,,,,,,,,7,FF,,0,1.335545,,,,,,,,,,,,,,,,,,,,,,,,,,,,,,,,,-31,87,1,0,0,response7disk,3,188,0,-1,1,0,0,rectangle,0,-1,1,0,0,1,7,"[66,8,178,45,101,63,155,129,12,223,122,291,183,219,79,295,147,14,191,7]",0,-1,1,0,0,0,25,25,73,1,,,,,,,,,,,,,,,,,,,,,,,
,,,,,,,,,,,,,,,,,,,,,,,,,,,,,,,,,,,,,,,,,,,5e68cedf12215e16f2b39fe3,5fe19771c274b3c312ccae4c,2020-12-22_08h53.16.895,FlowerSimilarity_Experiment,2020.1.2,Win32,60,5fe17d4a51f3a9c1a60f9869,,,,,,,,,,,,,,,,,,,8,PF,,7,2.314545,,,,,,,,,,,,,,,,,,,,,,,,,,,,,,,,,51,93,1,0,0,response1disk,1,189,5,0,1,0,0,rectangle,5,0,1,0,0,1,2,"[66,8,178,45,101,63,155,129,12,223,122,291,183,219,79,295,147,14,191,7]",5,0,1,0,0,0,26,26,57,1,,,,,,,,,,,,,,,,,,,,,,,
,,,,,,,,,,,,,,,,,,,,,,,,,,,,,,,,,,,,,,,,,,,5e68cedf12215e16f2b39fe3,5fe19771c274b3c312ccae4c,2020-12-22_08h53.16.895,FlowerSimilarity_Experiment,2020.1.2,Win32,60,5fe17d4a51f3a9c1a60f9869,,,,,,,,,,,,,,,,,,,1,FF,,7,1.853665,,,,,,,,,,,,,,,,,,,,,,,,,,,,,,,,,60,94,1,0,0,response1disk,4,190,-11,-4,1,0,0,rectangle,-11,-4,1,0,0,1,1,"[66,8,178,45,101,63,155,129,12,223,122,291,183,219,79,295,147,14,191,7]",-11,-4,1,0,0,0,27,27,135,1,,,,,,,,,,,,,,,,,,,,,,,
,,,,,,,,,,,,,,,,,,,,,,,,,,,,,,,,,,,,,,,,,,,5e68cedf12215e16f2b39fe3,5fe19771c274b3c312ccae4c,2020-12-22_08h53.16.895,FlowerSimilarity_Experiment,2020.1.2,Win32,60,5fe17d4a51f3a9c1a60f9869,,,,,,,,,,,,,,,,,,,6,FF,,6,4.6378,,,,,,,,,,,,,,,,,,,,,,,,,,,,,,,,,79,41,1,0,0,response1disk,6,191,-6,5,1,0,0,rectangle,-37,83,1,0,0,0,0,"[66,8,178,45,101,63,155,129,12,223,122,291,183,219,79,295,147,14,191,7]",6,2,1,0,0,0,28,28,91,1,response7disk_3,rectangle,,,,,,,,,,,,,,,,,,,,,
,,,,,,,,,,,,,,,,,,,,,,,,,,,,,,,,,,,,,,,,,,,5e68cedf12215e16f2b39fe3,5fe19771c274b3c312ccae4c,2020-12-22_08h53.16.895,FlowerSimilarity_Experiment,2020.1.2,Win32,60,5fe17d4a51f3a9c1a60f9869,,,,,,,,,,,,,,,,,,,4,FF,,4,2.406105,,,,,,,,,,,,,,,,,,,,,,,,,,,,,,,,,39,-94,1,0,0,response3disk,5,192,0,0,1,0,0,rectangle,0,0,1,0,0,0,5,"[66,8,178,45,101,63,155,129,12,223,122,291,183,219,79,295,147,14,191,7]",0,0,1,0,0,0,29,29,116,1,,,,,,,,,,,,,,,,,,,,,,,
,,,,,,,,,,,,,,,,,,,,,,,,,,,,,,,,,,,,,,,,,,,5e68cedf12215e16f2b39fe3,5fe19771c274b3c312ccae4c,2020-12-22_08h53.16.895,FlowerSimilarity_Experiment,2020.1.2,Win32,60,5fe17d4a51f3a9c1a60f9869,,,,,,,,,,,,,,,,,,,7,PF,,6,1.751455,,,,,,,,,,,,,,,,,,,,,,,,,,,,,,,,,74,44,1,0,0,response1disk,5,193,-5,-5,1,0,0,rectangle,-5,-5,1,0,0,0,5,"[66,8,178,45,101,63,155,129,12,223,122,291,183,219,79,295,147,14,191,7]",-5,-5,1,0,0,0,30,30,92,1,,,,,,,,,,,,,,,,,,,,,,,
,,,,,,,,,,,,,,,,,,,,,,,,,,,,,,,,,,,,,,,,,,,5e68cedf12215e16f2b39fe3,5fe19771c274b3c312ccae4c,2020-12-22_08h53.16.895,FlowerSimilarity_Experiment,2020.1.2,Win32,60,5fe17d4a51f3a9c1a60f9869,,,,,,,,,,,,,,,,,,,5,FF,,6,1.315585,,,,,,,,,,,,,,,,,,,,,,,,,,,,,,,,,77,48,1,0,0,response1disk,9,194,1,0,1,0,0,rectangle,1,0,1,0,0,0,3,"[66,8,178,45,101,63,155,129,12,223,122,291,183,219,79,295,147,14,191,7]",1,0,1,0,0,0,31,31,61,1,,,,,,,,,,,,,,,,,,,,,,,
,,,,,,,,,,,,,,,,,,,,,,,,,,,,,,,,,,,,,,,,,,,5e68cedf12215e16f2b39fe3,5fe19771c274b3c312ccae4c,2020-12-22_08h53.16.895,FlowerSimilarity_Experiment,2020.1.2,Win32,60,5fe17d4a51f3a9c1a60f9869,,,,,,,,,,,,,,,,,,,6,PF,,5,1.690885,,,,,,,,,,,,,,,,,,,,,,,,,,,,,,,,,51,-28,1,0,0,response3disk,7,195,17,-6,1,0,0,rectangle,17,-6,1,0,0,0,0,"[66,8,178,45,101,63,155,129,12,223,122,291,183,219,79,295,147,14,191,7]",17,-6,1,0,0,0,32,32,50,1,,,,,,,,,,,,,,,,,,,,,,,
,,,,,,,,,,,,,,,,,,,,,,,,,,,,,,,,,,,,,,,,,,,5e68cedf12215e16f2b39fe3,5fe19771c274b3c312ccae4c,2020-12-22_08h53.16.895,FlowerSimilarity_Experiment,2020.1.2,Win32,60,5fe17d4a51f3a9c1a60f9869,,,,,,,,,,,,,,,,,,,7,PF,,4,2.071305,,,,,,,,,,,,,,,,,,,,,,,,,,,,,,,,,30,-83,1,0,0,response3disk,2,196,14,7,1,0,0,rectangle,14,7,1,0,0,0,5,"[66,8,178,45,101,63,155,129,12,223,122,291,183,219,79,295,147,14,191,7]",14,7,1,0,0,0,33,33,32,1,,,,,,,,,,,,,,,,,,,,,,,
,,,,,,,,,,,,,,,,,,,,,,,,,,,,,,,,,,,,,,,,,,,5e68cedf12215e16f2b39fe3,5fe19771c274b3c312ccae4c,2020-12-22_08h53.16.895,FlowerSimilarity_Experiment,2020.1.2,Win32,60,5fe17d4a51f3a9c1a60f9869,,,,,,,,,,,,,,,,,,,2,PF,,7,1.29114,,,,,,,,,,,,,,,,,,,,,,,,,,,,,,,,,64,91,1,0,0,response1disk,6,197,-3,-8,1,0,0,rectangle,-3,-8,1,0,0,0,5,"[66,8,178,45,101,63,155,129,12,223,122,291,183,219,79,295,147,14,191,7]",-3,-8,1,0,0,0,34,34,113,1,,,,,,,,,,,,,,,,,,,,,,,
,,,,,,,,,,,,,,,,,,,,,,,,,,,,,,,,,,,,,,,,,,,5e68cedf12215e16f2b39fe3,5fe19771c274b3c312ccae4c,2020-12-22_08h53.16.895,FlowerSimilarity_Experiment,2020.1.2,Win32,60,5fe17d4a51f3a9c1a60f9869,,,,,,,,,,,,,,,,,,,2,PF,,6,4.70483,,,,,,,,,,,,,,,,,,,,,,,,,,,,,,,,,73,41,1,0,0,response1disk,2,198,5,4,1,0,0,rectangle,5,4,1,0,0,0,5,"[66,8,178,45,101,63,155,129,12,223,122,291,183,219,79,295,147,14,191,7]",5,4,1,0,0,0,35,35,14,1,,,,,,,,,,,,,,,,,,,,,,,
,,,,,,,,,,,,,,,,,,,,,,,,,,,,,,,,,,,,,,,,,,,5e68cedf12215e16f2b39fe3,5fe19771c274b3c312ccae4c,2020-12-22_08h53.16.895,FlowerSimilarity_Experiment,2020.1.2,Win32,60,5fe17d4a51f3a9c1a60f9869,,,,,,,,,,,,,,,,,,,5,PF,,7,1.817385,,,,,,,,,,,,,,,,,,,,,,,,,,,,,,,,,43,68,1,0,0,response1disk,6,199,2,4,1,0,0,rectangle,2,4,1,0,0,0,5,"[66,8,178,45,101,63,155,129,12,223,122,291,183,219,79,295,147,14,191,7]",2,4,1,0,0,0,36,36,103,1,,,,,,,,,,,,,,,,,,,,,,,
,,,,,,,,,,,,,,,,,,,,,,,,,,,,,,,,,,,,,,,,,,,5e68cedf12215e16f2b39fe3,5fe19771c274b3c312ccae4c,2020-12-22_08h53.16.895,FlowerSimilarity_Experiment,2020.1.2,Win32,60,5fe17d4a51f3a9c1a60f9869,,,,,,,,,,,,,,,,,,,1,FF,,6,1.56997,,,,,,,,,,,,,,,,,,,,,,,,,,,,,,,,,79,30,1,0,0,response1disk,8,200,10,-2,1,0,0,rectangle,10,-2,1,0,0,0,2,"[66,8,178,45,101,63,155,129,12,223,122,291,183,219,79,295,147,14,191,7]",10,-2,1,0,0,0,37,37,27,1,,,,,,,,,,,,,,,,,,,,,,,
,,,,,,,,,,,,,,,,,,,,,,,,,,,,,,,,,,,,,,,,,,,5e68cedf12215e16f2b39fe3,5fe19771c274b3c312ccae4c,2020-12-22_08h53.16.895,FlowerSimilarity_Experiment,2020.1.2,Win32,60,5fe17d4a51f3a9c1a60f9869,,,,,,,,,,,,,,,,,,,6,FF,,6,1.06926,,,,,,,,,,,,,,,,,,,,,,,,,,,,,,,,,82,36,1,0,0,response1disk,9,201,19,-2,1,0,0,rectangle,19,-2,1,0,0,0,1,"[66,8,178,45,101,63,155,129,12,223,122,291,183,219,79,295,147,14,191,7]",19,-2,1,0,0,0,38,38,160,1,,,,,,,,,,,,,,,,,,,,,,,
,,,,,,,,,,,,,,,,,,,,,,,,,,,,,,,,,,,,,,,,,,,5e68cedf12215e16f2b39fe3,5fe19771c274b3c312ccae4c,2020-12-22_08h53.16.895,FlowerSimilarity_Experiment,2020.1.2,Win32,60,5fe17d4a51f3a9c1a60f9869,,,,,,,,,,,,,,,,,,,6,PF,,7,2.301805,,,,,,,,,,,,,,,,,,,,,,,,,,,,,,,,,35,83,1,0,0,response1disk,8,202,7,10,1,0,0,rectangle,7,10,1,0,0,0,4,"[66,8,178,45,101,63,155,129,12,223,122,291,183,219,79,295,147,14,191,7]",7,10,1,0,0,0,39,39,64,1,,,,,,,,,,,,,,,,,,,,,,,
,,,,,,,,,,,,,,,,,,,,,,,,,,,,,,,,,,,,,,,,,,,5e68cedf12215e16f2b39fe3,5fe19771c274b3c312ccae4c,2020-12-22_08h53.16.895,FlowerSimilarity_Experiment,2020.1.2,Win32,60,5fe17d4a51f3a9c1a60f9869,,,,,,,,,,,,,,,,,,,8,PF,,7,1.33662,,,,,,,,,,,,,,,,,,,,,,,,,,,,,,,,,32,72,1,0,0,response1disk,4,203,1,6,1,0,0,rectangle,1,6,1,0,0,0,6,"[66,8,178,45,101,63,155,129,12,223,122,291,183,219,79,295,147,14,191,7]",1,6,1,0,0,0,40,40,78,1,,,,,,,,,,,,,,,,,,,,,,,
,,,,,,,,,,,,,,,,,,,,,,,,,,,,,,,,,,,,,,,,,,,5e68cedf12215e16f2b39fe3,5fe19771c274b3c312ccae4c,2020-12-22_08h53.16.895,FlowerSimilarity_Experiment,2020.1.2,Win32,60,5fe17d4a51f3a9c1a60f9869,,,,,,,,,,,,,,,,,,,5,PF,,4,2.41944,,,,,,,,,,,,,,,,,,,,,,,,,,,,,,,,,51,-86,1,0,0,response3disk,7,204,1,7,1,0,0,rectangle,1,7,1,0,0,0,7,"[66,8,178,45,101,63,155,129,12,223,122,291,183,219,79,295,147,14,191,7]",1,7,1,0,0,0,41,41,146,1,,,,,,,,,,,,,,,,,,,,,,,
,,,,,,,,,,,,,,,,,,,,,,,,,,,,,,,,,,,,,,,,,,,5e68cedf12215e16f2b39fe3,5fe19771c274b3c312ccae4c,2020-12-22_08h53.16.895,FlowerSimilarity_Experiment,2020.1.2,Win32,60,5fe17d4a51f3a9c1a60f9869,,,,,,,,,,,,,,,,,,,3,PF,,7,1.57207,,,,,,,,,,,,,,,,,,,,,,,,,,,,,,,,,49,98,1,0,0,response1disk,6,205,-1,-1,1,0,0,rectangle,-1,-1,1,0,0,0,0,"[66,8,178,45,101,63,155,129,12,223,122,291,183,219,79,295,147,14,191,7]",-1,-1,1,0,0,0,42,42,47,1,,,,,,,,,,,,,,,,,,,,,,,
,,,,,,,,,,,,,,,,,,,,,,,,,,,,,,,,,,,,,,,,,,,5e68cedf12215e16f2b39fe3,5fe19771c274b3c312ccae4c,2020-12-22_08h53.16.895,FlowerSimilarity_Experiment,2020.1.2,Win32,60,5fe17d4a51f3a9c1a60f9869,,,,,,,,,,,,,,,,,,,4,FF,,7,2.122425,,,,,,,,,,,,,,,,,,,,,,,,,,,,,,,,,47,80,1,0,0,response1disk,7,206,6,1,1,0,0,rectangle,6,1,1,0,0,0,2,"[66,8,178,45,101,63,155,129,12,223,122,291,183,219,79,295,147,14,191,7]",6,1,1,0,0,0,43,43,87,1,,,,,,,,,,,,,,,,,,,,,,,
,,,,,,,,,,,,,,,,,,,,,,,,,,,,,,,,,,,,,,,,,,,5e68cedf12215e16f2b39fe3,5fe19771c274b3c312ccae4c,2020-12-22_08h53.16.895,FlowerSimilarity_Experiment,2020.1.2,Win32,60,5fe17d4a51f3a9c1a60f9869,,,,,,,,,,,,,,,,,,,2,FF,,7,1.150115,,,,,,,,,,,,,,,,,,,,,,,,,,,,,,,,,38,73,1,0,0,response1disk,8,207,8,4,1,0,0,rectangle,8,4,1,0,0,0,5,"[66,8,178,45,101,63,155,129,12,223,122,291,183,219,79,295,147,14,191,7]",8,4,1,0,0,0,44,44,62,1,,,,,,,,,,,,,,,,,,,,,,,
