key_resp.keys,key_resp.rt,key_resp_16.keys,key_resp_16.rt,key_resp_2.keys,key_resp_2.rt,X Scale,ratio_pxpermm,screen_size_x,screen_size_y,testsize,key_resp_3.keys,key_resp_3.rt,key_resp_4.keys,key_resp_4.rt,line_size,key_resp_5.keys,key_resp_5.rt,key_resp_6.keys,key_resp_6.rt,key_resp_8.keys,key_resp_8.rt,key_resp_7.keys,key_resp_7.rt,key_resp_12.keys,key_resp_12.rt,key_resp_11.keys,key_resp_11.rt,key_resp_18.keys,key_resp_18.rt,key_resp_21.keys,key_resp_21.rt,key_resp_13.keys,key_resp_13.rt,key_resp_19.keys,key_resp_19.rt,ballposx,viewer_distance,trials.thisRepN,trials.thisTrialN,trials.thisN,trials.thisIndex,trials.ran,participant,session,date,expName,psychopyVersion,OS,frameRate,study_id,viewerdistancecm,DVA_to_distance,radius_F,radius_P,r_F,R_P,key_resp_20.keys,key_resp_20.rt,key_resp_14.keys,key_resp_14.rt,key_resp_15.keys,key_resp_15.rt,key_resp_17.keys,key_resp_17.rt,key_resp_9.keys,key_resp_9.rt,key_resp_10.keys,key_resp_10.rt,Flower1,Ecc,Flower_2,similarity,response_time,mouse_5.x,mouse_5.y,mouse_5.leftButton,mouse_5.midButton,mouse_5.rightButton,mouse_5.clicked_name,mouse_10.x,mouse_10.y,mouse_10.leftButton,mouse_10.midButton,mouse_10.rightButton,mouse_10.clicked_name,mouse_7.x,mouse_7.y,mouse_7.leftButton,mouse_7.midButton,mouse_7.rightButton,catchnumberprac,mouse_6.x,mouse_6.y,mouse_6.leftButton,mouse_6.midButton,mouse_6.rightButton,duringprac.thisRepN,duringprac.thisTrialN,duringprac.thisN,duringprac.thisIndex,duringprac.ran,mouse_7.clicked_name,mouse_6.clicked_name,key_resp_22.keys,key_resp_22.rt,mouse.x,mouse.y,mouse.leftButton,mouse.midButton,mouse.rightButton,mouse.clicked_name,Flower2,trialnumber,mouse_2.x,mouse_2.y,mouse_2.leftButton,mouse_2.midButton,mouse_2.rightButton,mouse_2.clicked_name,mouse_3.x,mouse_3.y,mouse_3.leftButton,mouse_3.midButton,mouse_3.rightButton,catchresponse,catchnumber,catchtrialorder,mouse_11.x,mouse_11.y,mouse_11.leftButton,mouse_11.midButton,mouse_11.rightButton,trials_2.thisRepN,trials_2.thisTrialN,trials_2.thisN,trials_2.thisIndex,trials_2.ran,mouse_3.clicked_name,mouse_11.clicked_name,trials_3.thisRepN,trials_3.thisTrialN,trials_3.thisN,trials_3.thisIndex,trials_3.ran,answer1,rt1,answer2,rt2,answer3,rt3,answer4,rt4,answer5,rt5,answer6,rt6,answer8,rt8,answer7,rt7
space,2.169,space,50.952,space,8.013,42.9,4.29,596.7365967,335.6643357,2560,space,64.878,space,18.556,85.8,space,13.268,space,10.087,space,2.301,space,12.046,space,11.686,space,14.267,space,14.613,space,12.436,space,20.879,return,23.402,-1006.08,1971.071071,0,0,0,0,1,5eabafe3df23cb199481dcf7,5fe191adc5f99bc12bdddc92,2020-12-21_22h27.28.514,FlowerSimilarity_Experiment,2020.1.2,MacIntel,60,5fe17d4a51f3a9c1a60f9869,,,,,,,,,,,,,,,,,,,,,,,,,,,,,,,,,,,,,,,,,,,,,,,,,,,,,,,,,,,,,,,,,,,,,,,,,,,,,,,,,,,,,,,,,,,,,,,,,,,,,,,,,,,,,,
,,,,,,,,,,,,,,,,,,,,,,,,,,,,,,,,,,return,11.144,-1248,2205.959112,1,0,1,0,1,5eabafe3df23cb199481dcf7,5fe191adc5f99bc12bdddc92,2020-12-21_22h27.28.514,FlowerSimilarity_Experiment,2020.1.2,MacIntel,60,5fe17d4a51f3a9c1a60f9869,,,,,,,,,,,,,,,,,,,,,,,,,,,,,,,,,,,,,,,,,,,,,,,,,,,,,,,,,,,,,,,,,,,,,,,,,,,,,,,,,,,,,,,,,,,,,,,,,,,,,,,,,,,,,,
,,,,,,,,,,,,,,,,,,,,,,,,,,,,,,,,,,return,9.773,-1098.24,2060.55223,2,0,2,0,1,5eabafe3df23cb199481dcf7,5fe191adc5f99bc12bdddc92,2020-12-21_22h27.28.514,FlowerSimilarity_Experiment,2020.1.2,MacIntel,60,5fe17d4a51f3a9c1a60f9869,,,,,,,,,,,,,,,,,,,,,,,,,,,,,,,,,,,,,,,,,,,,,,,,,,,,,,,,,,,,,,,,,,,,,,,,,,,,,,,,,,,,,,,,,,,,,,,,,,,,,,,,,,,,,,
,,,,,,,,,,,,,,,,,,,,,,,,,,,,,,,,,,return,9.007,-933.12,1900.231821,3,0,3,0,1,5eabafe3df23cb199481dcf7,5fe191adc5f99bc12bdddc92,2020-12-21_22h27.28.514,FlowerSimilarity_Experiment,2020.1.2,MacIntel,60,5fe17d4a51f3a9c1a60f9869,,,,,,,,,,,,,,,,,,,,,,,,,,,,,,,,,,,,,,,,,,,,,,,,,,,,,,,,,,,,,,,,,,,,,,,,,,,,,,,,,,,,,,,,,,,,,,,,,,,,,,,,,,,,,,
,,,,,,,,,,,,,,,,,,,,,,,,,,,,,,,,,,return,8.227,-837.12,1807.022281,4,0,4,0,1,5eabafe3df23cb199481dcf7,5fe191adc5f99bc12bdddc92,2020-12-21_22h27.28.514,FlowerSimilarity_Experiment,2020.1.2,MacIntel,60,5fe17d4a51f3a9c1a60f9869,,,,,,,,,,,,,,,,,,,,,,,,,,,,,,,,,,,,,,,,,,,,,,,,,,,,,,,,,,,,,,,,,,,,,,,,,,,,,,,,,,,,,,,,,,,,,,,,,,,,,,,,,,,,,,
,,,,,,,,,,,,,,,,,,,,,,,,,,,,,,,,,,,,,,,,,,,5eabafe3df23cb199481dcf7,5fe191adc5f99bc12bdddc92,2020-12-21_22h27.28.514,FlowerSimilarity_Experiment,2020.1.2,MacIntel,60,5fe17d4a51f3a9c1a60f9869,199,34.73556678,223.5233723,1490.155815,149.0155815,670.5701168,space,4.321,space,18.943,space,53.906,space,10.237,space,12.196,space,3.56,9,FF,9,0,8.284,-53,143,1,0,0,response7disk_5,-10,5,1,0,0,rectangle_8,-10,5,1,0,0,2,-10,5,1,0,0,0,0,0,0,1,,,,,,,,,,,,,,,,,,,,,,,,,,,,,,,,,,,,,,,,,,,,,,,,,,,,,,,,,,,
,,,,,,,,,,,,,,,,,,,,,,,,,,,,,,,,,,,,,,,,,,,5eabafe3df23cb199481dcf7,5fe191adc5f99bc12bdddc92,2020-12-21_22h27.28.514,FlowerSimilarity_Experiment,2020.1.2,MacIntel,60,5fe17d4a51f3a9c1a60f9869,,,,,,,,,,,,,,,,,,,8,PF,6,7,4.278,54,149,1,0,0,response1disk_5,2,-6,1,0,0,rectangle_8,-157,-63,1,0,0,2,-9,4,1,0,0,0,1,1,1,1,response5disk_7,rectangle_4,,,,,,,,,,,,,,,,,,,,,,,,,,,,,,,,,,,,,,,,,,,,,,,,,,,,,,,,,
,,,,,,,,,,,,,,,,,,,,,,,,,,,,,,,,,,,,,,,,,,,5eabafe3df23cb199481dcf7,5fe191adc5f99bc12bdddc92,2020-12-21_22h27.28.514,FlowerSimilarity_Experiment,2020.1.2,MacIntel,60,5fe17d4a51f3a9c1a60f9869,,,,,,,,,,,,,,,,,,,2,PF,7,4,6.898,46,-133,1,0,0,response3disk_5,2,8,1,0,0,rectangle_8,2,8,1,0,0,2,2,8,1,0,0,0,2,2,2,1,,,,,,,,,,,,,,,,,,,,,,,,,,,,,,,,,,,,,,,,,,,,,,,,,,,,,,,,,,,
,,,,,,,,,,,,,,,,,,,,,,,,,,,,,,,,,,,,,,,,,,,5eabafe3df23cb199481dcf7,5fe191adc5f99bc12bdddc92,2020-12-21_22h27.28.514,FlowerSimilarity_Experiment,2020.1.2,MacIntel,60,5fe17d4a51f3a9c1a60f9869,,,,,,,,,,,,,,,,,,,7,PF,9,3,2.672,-58,-122,1,0,0,response5disk_5,-11,1,1,0,0,rectangle_8,-149,-63,1,0,0,2,-11,-6,1,0,0,0,3,3,4,1,response5disk_7,rectangle_4,,,,,,,,,,,,,,,,,,,,,,,,,,,,,,,,,,,,,,,,,,,,,,,,,,,,,,,,,
,,,,,,,,,,,,,,,,,,,,,,,,,,,,,,,,,,,,,,,,,,,5eabafe3df23cb199481dcf7,5fe191adc5f99bc12bdddc92,2020-12-21_22h27.28.514,FlowerSimilarity_Experiment,2020.1.2,MacIntel,60,5fe17d4a51f3a9c1a60f9869,,,,,,,,,,,,,,,,,,,5,PF,9,5,1.97,104,-71,1,0,0,response3disk_5,-15,-1,1,0,0,rectangle_8,-15,-1,1,0,0,2,-15,-1,1,0,0,0,4,4,6,1,,,,,,,,,,,,,,,,,,,,,,,,,,,,,,,,,,,,,,,,,,,,,,,,,,,,,,,,,,,
,,,,,,,,,,,,,,,,,,,,,,,,,,,,,,,,,,,,,,,,,,,5eabafe3df23cb199481dcf7,5fe191adc5f99bc12bdddc92,2020-12-21_22h27.28.514,FlowerSimilarity_Experiment,2020.1.2,MacIntel,60,5fe17d4a51f3a9c1a60f9869,,,,,,,,,,,,,,,,,,,5,FF,6,7,6.174,67,135,1,0,0,response1disk_5,-4,-6,1,0,0,rectangle_8,-4,-6,1,0,0,2,-4,-6,1,0,0,0,5,5,5,1,,,,,,,,,,,,,,,,,,,,,,,,,,,,,,,,,,,,,,,,,,,,,,,,,,,,,,,,,,,
,,,,,,,,,,,,,,,,,,,,,,,,,,,,,,,,,,,,,,,,,,,5eabafe3df23cb199481dcf7,5fe191adc5f99bc12bdddc92,2020-12-21_22h27.28.514,FlowerSimilarity_Experiment,2020.1.2,MacIntel,60,5fe17d4a51f3a9c1a60f9869,,,,,,,,,,,,,,,,,,,2,FF,9,1,8.125,-133,73,1,0,0,response7disk_5,-2,-4,1,0,0,rectangle_8,-2,-4,1,0,0,2,-2,-4,1,0,0,0,6,6,3,1,,,,,,,,,,,,,,,,,,,,,,,,,,,,,,,,,,,,,,,,,,,,,,,,,,,,,,,,,,,
,,,,,,,,,,,,,,,,,,,,,,,,,,,,,,,,,,,,,,,,,,,5eabafe3df23cb199481dcf7,5fe191adc5f99bc12bdddc92,2020-12-21_22h27.28.514,FlowerSimilarity_Experiment,2020.1.2,MacIntel,60,5fe17d4a51f3a9c1a60f9869,,,,,,,,,,,,,,,,,,,6,PF,,2,3.353,,,,,,,,,,,,,,,,,,,,,,,,,,,,,,,space,2.758,-125,-58,1,0,0,response5disk,1,1,-2,8,1,0,0,rectangle,-2,8,1,0,0,,6,"[71,165,65,197,95,206,291,185,191,47,224,256,302,26,195,40,81,2,27,140]",-2,8,1,0,0,0,0,0,46,1,,,,,,,,,,,,,,,,,,,,,,,
,,,,,,,,,,,,,,,,,,,,,,,,,,,,,,,,,,,,,,,,,,,5eabafe3df23cb199481dcf7,5fe191adc5f99bc12bdddc92,2020-12-21_22h27.28.514,FlowerSimilarity_Experiment,2020.1.2,MacIntel,60,5fe17d4a51f3a9c1a60f9869,,,,,,,,,,,,,,,,,,,7,PF,,2,2.935,,,,,,,,,,,,,,,,,,,,,,,,,,,,,,,,,-135,-66,1,0,0,response5disk,4,2,4,8,1,0,0,rectangle,161,79,1,0,0,6,6,"[71,165,65,197,95,206,291,185,191,47,224,256,302,26,195,40,81,2,27,140]",-12,7,1,0,0,0,1,1,43,1,response1disk_3,rectangle,,,,,,,,,,,,,,,,,,,,,
,,,,,,,,,,,,,,,,,,,,,,,,,,,,,,,,,,,,,,,,,,,5eabafe3df23cb199481dcf7,5fe191adc5f99bc12bdddc92,2020-12-21_22h27.28.514,FlowerSimilarity_Experiment,2020.1.2,MacIntel,60,5fe17d4a51f3a9c1a60f9869,,,,,,,,,,,,,,,,,,,6,PF,,7,2.17,,,,,,,,,,,,,,,,,,,,,,,,,,,,,,,,,62,161,1,0,0,response1disk,4,3,-15,-6,1,0,0,rectangle,-15,-6,1,0,0,6,3,"[71,165,65,197,95,206,291,185,191,47,224,256,302,26,195,40,81,2,27,140]",-15,-6,1,0,0,0,2,2,33,1,,,,,,,,,,,,,,,,,,,,,,,
,,,,,,,,,,,,,,,,,,,,,,,,,,,,,,,,,,,,,,,,,,,5eabafe3df23cb199481dcf7,5fe191adc5f99bc12bdddc92,2020-12-21_22h27.28.514,FlowerSimilarity_Experiment,2020.1.2,MacIntel,60,5fe17d4a51f3a9c1a60f9869,,,,,,,,,,,,,,,,,,,6,FF,,3,2.569,,,,,,,,,,,,,,,,,,,,,,,,,,,,,,,,,-52,-128,1,0,0,response5disk,8,4,-11,4,1,0,0,rectangle,-11,4,1,0,0,6,0,"[71,165,65,197,95,206,291,185,191,47,224,256,302,26,195,40,81,2,27,140]",-11,4,1,0,0,0,3,3,133,1,,,,,,,,,,,,,,,,,,,,,,,
,,,,,,,,,,,,,,,,,,,,,,,,,,,,,,,,,,,,,,,,,,,5eabafe3df23cb199481dcf7,5fe191adc5f99bc12bdddc92,2020-12-21_22h27.28.514,FlowerSimilarity_Experiment,2020.1.2,MacIntel,60,5fe17d4a51f3a9c1a60f9869,,,,,,,,,,,,,,,,,,,9,PF,,3,2.068,,,,,,,,,,,,,,,,,,,,,,,,,,,,,,,,,-54,-112,1,0,0,response5disk,1,5,-4,-5,1,0,0,rectangle,-4,-5,1,0,0,6,3,"[71,165,65,197,95,206,291,185,191,47,224,256,302,26,195,40,81,2,27,140]",-4,-5,1,0,0,0,4,4,74,1,,,,,,,,,,,,,,,,,,,,,,,
,,,,,,,,,,,,,,,,,,,,,,,,,,,,,,,,,,,,,,,,,,,5eabafe3df23cb199481dcf7,5fe191adc5f99bc12bdddc92,2020-12-21_22h27.28.514,FlowerSimilarity_Experiment,2020.1.2,MacIntel,60,5fe17d4a51f3a9c1a60f9869,,,,,,,,,,,,,,,,,,,6,PF,,5,2.32,,,,,,,,,,,,,,,,,,,,,,,,,,,,,,,,,131,-85,1,0,0,response3disk,2,6,-22,-2,1,0,0,rectangle,-22,-2,1,0,0,6,0,"[71,165,65,197,95,206,291,185,191,47,224,256,302,26,195,40,81,2,27,140]",-22,-2,1,0,0,0,5,5,130,1,,,,,,,,,,,,,,,,,,,,,,,
,,,,,,,,,,,,,,,,,,,,,,,,,,,,,,,,,,,,,,,,,,,5eabafe3df23cb199481dcf7,5fe191adc5f99bc12bdddc92,2020-12-21_22h27.28.514,FlowerSimilarity_Experiment,2020.1.2,MacIntel,60,5fe17d4a51f3a9c1a60f9869,,,,,,,,,,,,,,,,,,,5,FF,,0,3.586,,,,,,,,,,,,,,,,,,,,,,,,,,,,,,,,,-58,168,1,0,0,response7disk,5,7,-17,0,1,0,0,rectangle,-17,0,1,0,0,6,0,"[71,165,65,197,95,206,291,185,191,47,224,256,302,26,195,40,81,2,27,140]",-17,0,1,0,0,0,6,6,19,1,,,,,,,,,,,,,,,,,,,,,,,
,,,,,,,,,,,,,,,,,,,,,,,,,,,,,,,,,,,,,,,,,,,5eabafe3df23cb199481dcf7,5fe191adc5f99bc12bdddc92,2020-12-21_22h27.28.514,FlowerSimilarity_Experiment,2020.1.2,MacIntel,60,5fe17d4a51f3a9c1a60f9869,,,,,,,,,,,,,,,,,,,3,FF,,4,3.57,,,,,,,,,,,,,,,,,,,,,,,,,,,,,,,,,57,-136,1,0,0,response3disk,6,8,0,7,1,0,0,rectangle,0,7,1,0,0,6,7,"[71,165,65,197,95,206,291,185,191,47,224,256,302,26,195,40,81,2,27,140]",0,7,1,0,0,0,7,7,95,1,,,,,,,,,,,,,,,,,,,,,,,
,,,,,,,,,,,,,,,,,,,,,,,,,,,,,,,,,,,,,,,,,,,5eabafe3df23cb199481dcf7,5fe191adc5f99bc12bdddc92,2020-12-21_22h27.28.514,FlowerSimilarity_Experiment,2020.1.2,MacIntel,60,5fe17d4a51f3a9c1a60f9869,,,,,,,,,,,,,,,,,,,9,FF,,2,4.472,,,,,,,,,,,,,,,,,,,,,,,,,,,,,,,,,-159,-65,1,0,0,response5disk,6,9,-10,-9,1,0,0,rectangle,-10,-9,1,0,0,6,1,"[71,165,65,197,95,206,291,185,191,47,224,256,302,26,195,40,81,2,27,140]",-10,-9,1,0,0,0,8,8,117,1,,,,,,,,,,,,,,,,,,,,,,,
,,,,,,,,,,,,,,,,,,,,,,,,,,,,,,,,,,,,,,,,,,,5eabafe3df23cb199481dcf7,5fe191adc5f99bc12bdddc92,2020-12-21_22h27.28.514,FlowerSimilarity_Experiment,2020.1.2,MacIntel,60,5fe17d4a51f3a9c1a60f9869,,,,,,,,,,,,,,,,,,,7,PF,,3,2.333,,,,,,,,,,,,,,,,,,,,,,,,,,,,,,,,,-70,-145,1,0,0,response5disk,5,10,-4,8,1,0,0,rectangle,-4,8,1,0,0,6,5,"[71,165,65,197,95,206,291,185,191,47,224,256,302,26,195,40,81,2,27,140]",-4,8,1,0,0,0,9,9,92,1,,,,,,,,,,,,,,,,,,,,,,,
,,,,,,,,,,,,,,,,,,,,,,,,,,,,,,,,,,,,,,,,,,,5eabafe3df23cb199481dcf7,5fe191adc5f99bc12bdddc92,2020-12-21_22h27.28.514,FlowerSimilarity_Experiment,2020.1.2,MacIntel,60,5fe17d4a51f3a9c1a60f9869,,,,,,,,,,,,,,,,,,,5,FF,,4,2.134,,,,,,,,,,,,,,,,,,,,,,,,,,,,,,,,,60,-158,1,0,0,response3disk,6,11,-14,0,1,0,0,rectangle,-14,0,1,0,0,6,1,"[71,165,65,197,95,206,291,185,191,47,224,256,302,26,195,40,81,2,27,140]",-14,0,1,0,0,0,10,10,12,1,,,,,,,,,,,,,,,,,,,,,,,
,,,,,,,,,,,,,,,,,,,,,,,,,,,,,,,,,,,,,,,,,,,5eabafe3df23cb199481dcf7,5fe191adc5f99bc12bdddc92,2020-12-21_22h27.28.514,FlowerSimilarity_Experiment,2020.1.2,MacIntel,60,5fe17d4a51f3a9c1a60f9869,,,,,,,,,,,,,,,,,,,2,PF,,3,1.568,,,,,,,,,,,,,,,,,,,,,,,,,,,,,,,,,-77,-148,1,0,0,response5disk,9,12,-10,-3,1,0,0,rectangle,-10,-3,1,0,0,6,6,"[71,165,65,197,95,206,291,185,191,47,224,256,302,26,195,40,81,2,27,140]",-10,-3,1,0,0,0,11,11,39,1,,,,,,,,,,,,,,,,,,,,,,,
,,,,,,,,,,,,,,,,,,,,,,,,,,,,,,,,,,,,,,,,,,,5eabafe3df23cb199481dcf7,5fe191adc5f99bc12bdddc92,2020-12-21_22h27.28.514,FlowerSimilarity_Experiment,2020.1.2,MacIntel,60,5fe17d4a51f3a9c1a60f9869,,,,,,,,,,,,,,,,,,,2,PF,,6,2.434,,,,,,,,,,,,,,,,,,,,,,,,,,,,,,,,,162,61,1,0,0,response1disk,6,13,-11,6,1,0,0,rectangle,-11,6,1,0,0,6,1,"[71,165,65,197,95,206,291,185,191,47,224,256,302,26,195,40,81,2,27,140]",-11,6,1,0,0,0,12,12,113,1,,,,,,,,,,,,,,,,,,,,,,,
,,,,,,,,,,,,,,,,,,,,,,,,,,,,,,,,,,,,,,,,,,,5eabafe3df23cb199481dcf7,5fe191adc5f99bc12bdddc92,2020-12-21_22h27.28.514,FlowerSimilarity_Experiment,2020.1.2,MacIntel,60,5fe17d4a51f3a9c1a60f9869,,,,,,,,,,,,,,,,,,,3,PF,,4,3.135,,,,,,,,,,,,,,,,,,,,,,,,,,,,,,,,,55,-134,1,0,0,response3disk,7,14,-17,-4,1,0,0,rectangle,-17,-4,1,0,0,6,4,"[71,165,65,197,95,206,291,185,191,47,224,256,302,26,195,40,81,2,27,140]",-17,-4,1,0,0,0,13,13,41,1,,,,,,,,,,,,,,,,,,,,,,,
,,,,,,,,,,,,,,,,,,,,,,,,,,,,,,,,,,,,,,,,,,,5eabafe3df23cb199481dcf7,5fe191adc5f99bc12bdddc92,2020-12-21_22h27.28.514,FlowerSimilarity_Experiment,2020.1.2,MacIntel,60,5fe17d4a51f3a9c1a60f9869,,,,,,,,,,,,,,,,,,,6,FF,,7,2.203,,,,,,,,,,,,,,,,,,,,,,,,,,,,,,,,,72,146,1,0,0,response1disk,5,15,-2,-6,1,0,0,rectangle,-2,-6,1,0,0,6,1,"[71,165,65,197,95,206,291,185,191,47,224,256,302,26,195,40,81,2,27,140]",-2,-6,1,0,0,0,14,14,126,1,,,,,,,,,,,,,,,,,,,,,,,
,,,,,,,,,,,,,,,,,,,,,,,,,,,,,,,,,,,,,,,,,,,5eabafe3df23cb199481dcf7,5fe191adc5f99bc12bdddc92,2020-12-21_22h27.28.514,FlowerSimilarity_Experiment,2020.1.2,MacIntel,60,5fe17d4a51f3a9c1a60f9869,,,,,,,,,,,,,,,,,,,5,FF,,5,1.652,,,,,,,,,,,,,,,,,,,,,,,,,,,,,,,,,129,-59,1,0,0,response3disk,9,16,2,-1,1,0,0,rectangle,2,-1,1,0,0,6,5,"[71,165,65,197,95,206,291,185,191,47,224,256,302,26,195,40,81,2,27,140]",2,-1,1,0,0,0,15,15,61,1,,,,,,,,,,,,,,,,,,,,,,,
,,,,,,,,,,,,,,,,,,,,,,,,,,,,,,,,,,,,,,,,,,,5eabafe3df23cb199481dcf7,5fe191adc5f99bc12bdddc92,2020-12-21_22h27.28.514,FlowerSimilarity_Experiment,2020.1.2,MacIntel,60,5fe17d4a51f3a9c1a60f9869,,,,,,,,,,,,,,,,,,,6,FF,,6,2.085,,,,,,,,,,,,,,,,,,,,,,,,,,,,,,,,,160,61,1,0,0,response1disk,6,17,-4,9,1,0,0,rectangle,-4,9,1,0,0,6,4,"[71,165,65,197,95,206,291,185,191,47,224,256,302,26,195,40,81,2,27,140]",-4,9,1,0,0,0,16,16,91,1,,,,,,,,,,,,,,,,,,,,,,,
,,,,,,,,,,,,,,,,,,,,,,,,,,,,,,,,,,,,,,,,,,,5eabafe3df23cb199481dcf7,5fe191adc5f99bc12bdddc92,2020-12-21_22h27.28.514,FlowerSimilarity_Experiment,2020.1.2,MacIntel,60,5fe17d4a51f3a9c1a60f9869,,,,,,,,,,,,,,,,,,,1,FF,,3,5.021,,,,,,,,,,,,,,,,,,,,,,,,,,,,,,,,,-69,-153,1,0,0,response5disk,2,18,-2,-4,1,0,0,rectangle,-2,-4,1,0,0,6,3,"[71,165,65,197,95,206,291,185,191,47,224,256,302,26,195,40,81,2,27,140]",-2,-4,1,0,0,0,17,17,2,1,,,,,,,,,,,,,,,,,,,,,,,
,,,,,,,,,,,,,,,,,,,,,,,,,,,,,,,,,,,,,,,,,,,5eabafe3df23cb199481dcf7,5fe191adc5f99bc12bdddc92,2020-12-21_22h27.28.514,FlowerSimilarity_Experiment,2020.1.2,MacIntel,60,5fe17d4a51f3a9c1a60f9869,,,,,,,,,,,,,,,,,,,7,FF,,4,3.086,,,,,,,,,,,,,,,,,,,,,,,,,,,,,,,,,70,-158,1,0,0,response3disk,1,19,-3,-1,1,0,0,rectangle,-3,-1,1,0,0,6,0,"[71,165,65,197,95,206,291,185,191,47,224,256,302,26,195,40,81,2,27,140]",-3,-1,1,0,0,0,18,18,132,1,,,,,,,,,,,,,,,,,,,,,,,
,,,,,,,,,,,,,,,,,,,,,,,,,,,,,,,,,,,,,,,,,,,5eabafe3df23cb199481dcf7,5fe191adc5f99bc12bdddc92,2020-12-21_22h27.28.514,FlowerSimilarity_Experiment,2020.1.2,MacIntel,60,5fe17d4a51f3a9c1a60f9869,,,,,,,,,,,,,,,,,,,1,PF,,0,1.654,,,,,,,,,,,,,,,,,,,,,,,,,,,,,,,,,-65,174,1,0,0,response7disk,1,20,-24,2,1,0,0,rectangle,-24,2,1,0,0,6,3,"[71,165,65,197,95,206,291,185,191,47,224,256,302,26,195,40,81,2,27,140]",-24,2,1,0,0,0,19,19,76,1,,,,,,,,,,,,,,,,,,,,,,,
,,,,,,,,,,,,,,,,,,,,,,,,,,,,,,,,,,,,,,,,,,,5eabafe3df23cb199481dcf7,5fe191adc5f99bc12bdddc92,2020-12-21_22h27.28.514,FlowerSimilarity_Experiment,2020.1.2,MacIntel,60,5fe17d4a51f3a9c1a60f9869,,,,,,,,,,,,,,,,,,,2,PF,,5,5.004,,,,,,,,,,,,,,,,,,,,,,,,,,,,,,,,,144,-54,1,0,0,response3disk,7,21,15,-1,1,0,0,rectangle,15,-1,1,0,0,6,5,"[71,165,65,197,95,206,291,185,191,47,224,256,302,26,195,40,81,2,27,140]",15,-1,1,0,0,0,20,20,107,1,,,,,,,,,,,,,,,,,,,,,,,
,,,,,,,,,,,,,,,,,,,,,,,,,,,,,,,,,,,,,,,,,,,5eabafe3df23cb199481dcf7,5fe191adc5f99bc12bdddc92,2020-12-21_22h27.28.514,FlowerSimilarity_Experiment,2020.1.2,MacIntel,60,5fe17d4a51f3a9c1a60f9869,,,,,,,,,,,,,,,,,,,3,FF,,0,1.383,,,,,,,,,,,,,,,,,,,,,,,,,,,,,,,,,-86,153,1,0,0,response7disk,3,22,2,-1,1,0,0,rectangle,2,-1,1,0,0,6,6,"[71,165,65,197,95,206,291,185,191,47,224,256,302,26,195,40,81,2,27,140]",2,-1,1,0,0,0,21,21,68,1,,,,,,,,,,,,,,,,,,,,,,,
,,,,,,,,,,,,,,,,,,,,,,,,,,,,,,,,,,,,,,,,,,,5eabafe3df23cb199481dcf7,5fe191adc5f99bc12bdddc92,2020-12-21_22h27.28.514,FlowerSimilarity_Experiment,2020.1.2,MacIntel,60,5fe17d4a51f3a9c1a60f9869,,,,,,,,,,,,,,,,,,,1,FF,,4,2.636,,,,,,,,,,,,,,,,,,,,,,,,,,,,,,,,,66,-150,1,0,0,response3disk,9,23,0,3,1,0,0,rectangle,0,3,1,0,0,6,6,"[71,165,65,197,95,206,291,185,191,47,224,256,302,26,195,40,81,2,27,140]",0,3,1,0,0,0,22,22,123,1,,,,,,,,,,,,,,,,,,,,,,,
,,,,,,,,,,,,,,,,,,,,,,,,,,,,,,,,,,,,,,,,,,,5eabafe3df23cb199481dcf7,5fe191adc5f99bc12bdddc92,2020-12-21_22h27.28.514,FlowerSimilarity_Experiment,2020.1.2,MacIntel,60,5fe17d4a51f3a9c1a60f9869,,,,,,,,,,,,,,,,,,,8,PF,,7,3.319,,,,,,,,,,,,,,,,,,,,,,,,,,,,,,,,,70,163,1,0,0,response1disk,1,24,-10,-7,1,0,0,rectangle,-10,-7,1,0,0,6,6,"[71,165,65,197,95,206,291,185,191,47,224,256,302,26,195,40,81,2,27,140]",-10,-7,1,0,0,0,23,23,57,1,,,,,,,,,,,,,,,,,,,,,,,
,,,,,,,,,,,,,,,,,,,,,,,,,,,,,,,,,,,,,,,,,,,5eabafe3df23cb199481dcf7,5fe191adc5f99bc12bdddc92,2020-12-21_22h27.28.514,FlowerSimilarity_Experiment,2020.1.2,MacIntel,60,5fe17d4a51f3a9c1a60f9869,,,,,,,,,,,,,,,,,,,4,PF,,6,1.585,,,,,,,,,,,,,,,,,,,,,,,,,,,,,,,,,157,61,1,0,0,response1disk,4,25,-19,-6,1,0,0,rectangle,-19,-6,1,0,0,6,0,"[71,165,65,197,95,206,291,185,191,47,224,256,302,26,195,40,81,2,27,140]",-19,-6,1,0,0,0,24,24,70,1,,,,,,,,,,,,,,,,,,,,,,,
,,,,,,,,,,,,,,,,,,,,,,,,,,,,,,,,,,,,,,,,,,,5eabafe3df23cb199481dcf7,5fe191adc5f99bc12bdddc92,2020-12-21_22h27.28.514,FlowerSimilarity_Experiment,2020.1.2,MacIntel,60,5fe17d4a51f3a9c1a60f9869,,,,,,,,,,,,,,,,,,,6,PF,,7,1.803,,,,,,,,,,,,,,,,,,,,,,,,,,,,,,,,,81,146,1,0,0,response1disk,5,26,-2,-3,1,0,0,rectangle,66,174,1,0,0,7,7,"[71,165,65,197,95,206,291,185,191,47,224,256,302,26,195,40,81,2,27,140]",-6,7,1,0,0,0,25,25,59,1,response1disk_3,rectangle,,,,,,,,,,,,,,,,,,,,,
,,,,,,,,,,,,,,,,,,,,,,,,,,,,,,,,,,,,,,,,,,,5eabafe3df23cb199481dcf7,5fe191adc5f99bc12bdddc92,2020-12-21_22h27.28.514,FlowerSimilarity_Experiment,2020.1.2,MacIntel,60,5fe17d4a51f3a9c1a60f9869,,,,,,,,,,,,,,,,,,,7,PF,,5,1.501,,,,,,,,,,,,,,,,,,,,,,,,,,,,,,,,,131,-70,1,0,0,response3disk,1,27,-5,0,1,0,0,rectangle,-139,-71,1,0,0,7,2,"[71,165,65,197,95,206,291,185,191,47,224,256,302,26,195,40,81,2,27,140]",-10,-10,1,0,0,0,26,26,53,1,response5disk_3,rectangle,,,,,,,,,,,,,,,,,,,,,
,,,,,,,,,,,,,,,,,,,,,,,,,,,,,,,,,,,,,,,,,,,5eabafe3df23cb199481dcf7,5fe191adc5f99bc12bdddc92,2020-12-21_22h27.28.514,FlowerSimilarity_Experiment,2020.1.2,MacIntel,60,5fe17d4a51f3a9c1a60f9869,,,,,,,,,,,,,,,,,,,7,FF,,0,3.131,,,,,,,,,,,,,,,,,,,,,,,,,,,,,,,,,-63,159,1,0,0,response7disk,7,28,1,-5,1,0,0,rectangle,1,-5,1,0,0,7,7,"[71,165,65,197,95,206,291,185,191,47,224,256,302,26,195,40,81,2,27,140]",1,-5,1,0,0,0,27,27,34,1,,,,,,,,,,,,,,,,,,,,,,,
,,,,,,,,,,,,,,,,,,,,,,,,,,,,,,,,,,,,,,,,,,,5eabafe3df23cb199481dcf7,5fe191adc5f99bc12bdddc92,2020-12-21_22h27.28.514,FlowerSimilarity_Experiment,2020.1.2,MacIntel,60,5fe17d4a51f3a9c1a60f9869,,,,,,,,,,,,,,,,,,,8,PF,,5,1.868,,,,,,,,,,,,,,,,,,,,,,,,,,,,,,,,,144,-78,1,0,0,response3disk,7,29,-19,-3,1,0,0,rectangle,-19,-3,1,0,0,7,0,"[71,165,65,197,95,206,291,185,191,47,224,256,302,26,195,40,81,2,27,140]",-19,-3,1,0,0,0,28,28,23,1,,,,,,,,,,,,,,,,,,,,,,,
,,,,,,,,,,,,,,,,,,,,,,,,,,,,,,,,,,,,,,,,,,,5eabafe3df23cb199481dcf7,5fe191adc5f99bc12bdddc92,2020-12-21_22h27.28.514,FlowerSimilarity_Experiment,2020.1.2,MacIntel,60,5fe17d4a51f3a9c1a60f9869,,,,,,,,,,,,,,,,,,,9,FF,,0,1.451,,,,,,,,,,,,,,,,,,,,,,,,,,,,,,,,,-70,155,1,0,0,response7disk,9,30,-1,-9,1,0,0,rectangle,-1,-9,1,0,0,7,4,"[71,165,65,197,95,206,291,185,191,47,224,256,302,26,195,40,81,2,27,140]",-1,-9,1,0,0,0,29,29,17,1,,,,,,,,,,,,,,,,,,,,,,,
,,,,,,,,,,,,,,,,,,,,,,,,,,,,,,,,,,,,,,,,,,,5eabafe3df23cb199481dcf7,5fe191adc5f99bc12bdddc92,2020-12-21_22h27.28.514,FlowerSimilarity_Experiment,2020.1.2,MacIntel,60,5fe17d4a51f3a9c1a60f9869,,,,,,,,,,,,,,,,,,,1,FF,,7,1.735,,,,,,,,,,,,,,,,,,,,,,,,,,,,,,,,,68,159,1,0,0,response1disk,7,31,1,4,1,0,0,rectangle,1,4,1,0,0,7,0,"[71,165,65,197,95,206,291,185,191,47,224,256,302,26,195,40,81,2,27,140]",1,4,1,0,0,0,30,30,137,1,,,,,,,,,,,,,,,,,,,,,,,
,,,,,,,,,,,,,,,,,,,,,,,,,,,,,,,,,,,,,,,,,,,5eabafe3df23cb199481dcf7,5fe191adc5f99bc12bdddc92,2020-12-21_22h27.28.514,FlowerSimilarity_Experiment,2020.1.2,MacIntel,60,5fe17d4a51f3a9c1a60f9869,,,,,,,,,,,,,,,,,,,5,PF,,7,1.235,,,,,,,,,,,,,,,,,,,,,,,,,,,,,,,,,77,162,1,0,0,response1disk,6,32,-6,-12,1,0,0,rectangle,-6,-12,1,0,0,7,5,"[71,165,65,197,95,206,291,185,191,47,224,256,302,26,195,40,81,2,27,140]",-6,-12,1,0,0,0,31,31,103,1,,,,,,,,,,,,,,,,,,,,,,,
,,,,,,,,,,,,,,,,,,,,,,,,,,,,,,,,,,,,,,,,,,,5eabafe3df23cb199481dcf7,5fe191adc5f99bc12bdddc92,2020-12-21_22h27.28.514,FlowerSimilarity_Experiment,2020.1.2,MacIntel,60,5fe17d4a51f3a9c1a60f9869,,,,,,,,,,,,,,,,,,,3,FF,,7,1.035,,,,,,,,,,,,,,,,,,,,,,,,,,,,,,,,,82,174,1,0,0,response1disk,4,33,-9,-1,1,0,0,rectangle,-9,-1,1,0,0,7,7,"[71,165,65,197,95,206,291,185,191,47,224,256,302,26,195,40,81,2,27,140]",-9,-1,1,0,0,0,32,32,110,1,,,,,,,,,,,,,,,,,,,,,,,
,,,,,,,,,,,,,,,,,,,,,,,,,,,,,,,,,,,,,,,,,,,5eabafe3df23cb199481dcf7,5fe191adc5f99bc12bdddc92,2020-12-21_22h27.28.514,FlowerSimilarity_Experiment,2020.1.2,MacIntel,60,5fe17d4a51f3a9c1a60f9869,,,,,,,,,,,,,,,,,,,2,PF,,4,2.184,,,,,,,,,,,,,,,,,,,,,,,,,,,,,,,,,51,-124,1,0,0,response3disk,3,34,-3,1,1,0,0,rectangle,-3,1,1,0,0,7,3,"[71,165,65,197,95,206,291,185,191,47,224,256,302,26,195,40,81,2,27,140]",-3,1,1,0,0,0,33,33,69,1,,,,,,,,,,,,,,,,,,,,,,,
,,,,,,,,,,,,,,,,,,,,,,,,,,,,,,,,,,,,,,,,,,,5eabafe3df23cb199481dcf7,5fe191adc5f99bc12bdddc92,2020-12-21_22h27.28.514,FlowerSimilarity_Experiment,2020.1.2,MacIntel,60,5fe17d4a51f3a9c1a60f9869,,,,,,,,,,,,,,,,,,,4,PF,,7,1.317,,,,,,,,,,,,,,,,,,,,,,,,,,,,,,,,,63,160,1,0,0,response1disk,2,35,-11,-7,1,0,0,rectangle,-11,-7,1,0,0,7,2,"[71,165,65,197,95,206,291,185,191,47,224,256,302,26,195,40,81,2,27,140]",-11,-7,1,0,0,0,34,34,108,1,,,,,,,,,,,,,,,,,,,,,,,
,,,,,,,,,,,,,,,,,,,,,,,,,,,,,,,,,,,,,,,,,,,5eabafe3df23cb199481dcf7,5fe191adc5f99bc12bdddc92,2020-12-21_22h27.28.514,FlowerSimilarity_Experiment,2020.1.2,MacIntel,60,5fe17d4a51f3a9c1a60f9869,,,,,,,,,,,,,,,,,,,7,FF,,7,1.787,,,,,,,,,,,,,,,,,,,,,,,,,,,,,,,,,50,162,1,0,0,response1disk,4,36,-9,-1,1,0,0,rectangle,-9,-1,1,0,0,7,6,"[71,165,65,197,95,206,291,185,191,47,224,256,302,26,195,40,81,2,27,140]",-9,-1,1,0,0,0,35,35,158,1,,,,,,,,,,,,,,,,,,,,,,,
,,,,,,,,,,,,,,,,,,,,,,,,,,,,,,,,,,,,,,,,,,,5eabafe3df23cb199481dcf7,5fe191adc5f99bc12bdddc92,2020-12-21_22h27.28.514,FlowerSimilarity_Experiment,2020.1.2,MacIntel,60,5fe17d4a51f3a9c1a60f9869,,,,,,,,,,,,,,,,,,,8,FF,,7,1.052,,,,,,,,,,,,,,,,,,,,,,,,,,,,,,,,,75,127,1,0,0,response1disk,4,37,7,-1,1,0,0,rectangle,7,-1,1,0,0,7,0,"[71,165,65,197,95,206,291,185,191,47,224,256,302,26,195,40,81,2,27,140]",7,-1,1,0,0,0,36,36,88,1,,,,,,,,,,,,,,,,,,,,,,,
,,,,,,,,,,,,,,,,,,,,,,,,,,,,,,,,,,,,,,,,,,,5eabafe3df23cb199481dcf7,5fe191adc5f99bc12bdddc92,2020-12-21_22h27.28.514,FlowerSimilarity_Experiment,2020.1.2,MacIntel,60,5fe17d4a51f3a9c1a60f9869,,,,,,,,,,,,,,,,,,,5,FF,,6,1.369,,,,,,,,,,,,,,,,,,,,,,,,,,,,,,,,,134,51,1,0,0,response1disk,8,38,-8,8,1,0,0,rectangle,-8,8,1,0,0,7,1,"[71,165,65,197,95,206,291,185,191,47,224,256,302,26,195,40,81,2,27,140]",-8,8,1,0,0,0,37,37,16,1,,,,,,,,,,,,,,,,,,,,,,,
,,,,,,,,,,,,,,,,,,,,,,,,,,,,,,,,,,,,,,,,,,,5eabafe3df23cb199481dcf7,5fe191adc5f99bc12bdddc92,2020-12-21_22h27.28.514,FlowerSimilarity_Experiment,2020.1.2,MacIntel,60,5fe17d4a51f3a9c1a60f9869,,,,,,,,,,,,,,,,,,,7,PF,,0,1.685,,,,,,,,,,,,,,,,,,,,,,,,,,,,,,,,,-63,175,1,0,0,response7disk,7,39,-6,-4,1,0,0,rectangle,-6,-4,1,0,0,7,4,"[71,165,65,197,95,206,291,185,191,47,224,256,302,26,195,40,81,2,27,140]",-6,-4,1,0,0,0,38,38,51,1,,,,,,,,,,,,,,,,,,,,,,,
,,,,,,,,,,,,,,,,,,,,,,,,,,,,,,,,,,,,,,,,,,,5eabafe3df23cb199481dcf7,5fe191adc5f99bc12bdddc92,2020-12-21_22h27.28.514,FlowerSimilarity_Experiment,2020.1.2,MacIntel,60,5fe17d4a51f3a9c1a60f9869,,,,,,,,,,,,,,,,,,,1,PF,,2,2.085,,,,,,,,,,,,,,,,,,,,,,,,,,,,,,,,,-117,-53,1,0,0,response5disk,9,40,-20,-8,1,0,0,rectangle,-68,157,1,0,0,0,0,"[71,165,65,197,95,206,291,185,191,47,224,256,302,26,195,40,81,2,27,140]",-5,-2,1,0,0,0,39,39,15,1,response7disk_3,rectangle,,,,,,,,,,,,,,,,,,,,,
,,,,,,,,,,,,,,,,,,,,,,,,,,,,,,,,,,,,,,,,,,,5eabafe3df23cb199481dcf7,5fe191adc5f99bc12bdddc92,2020-12-21_22h27.28.514,FlowerSimilarity_Experiment,2020.1.2,MacIntel,60,5fe17d4a51f3a9c1a60f9869,,,,,,,,,,,,,,,,,,,8,PF,,5,1.543,,,,,,,,,,,,,,,,,,,,,,,,,,,,,,,,,157,-43,1,0,0,response3disk,5,41,2,6,1,0,0,rectangle,2,6,1,0,0,0,0,"[71,165,65,197,95,206,291,185,191,47,224,256,302,26,195,40,81,2,27,140]",2,6,1,0,0,0,40,40,98,1,,,,,,,,,,,,,,,,,,,,,,,
,,,,,,,,,,,,,,,,,,,,,,,,,,,,,,,,,,,,,,,,,,,5eabafe3df23cb199481dcf7,5fe191adc5f99bc12bdddc92,2020-12-21_22h27.28.514,FlowerSimilarity_Experiment,2020.1.2,MacIntel,60,5fe17d4a51f3a9c1a60f9869,,,,,,,,,,,,,,,,,,,4,FF,,6,2.504,,,,,,,,,,,,,,,,,,,,,,,,,,,,,,,,,154,69,1,0,0,response1disk,1,42,-20,-8,1,0,0,rectangle,-20,-8,1,0,0,0,1,"[71,165,65,197,95,206,291,185,191,47,224,256,302,26,195,40,81,2,27,140]",-20,-8,1,0,0,0,41,41,102,1,,,,,,,,,,,,,,,,,,,,,,,
,,,,,,,,,,,,,,,,,,,,,,,,,,,,,,,,,,,,,,,,,,,5eabafe3df23cb199481dcf7,5fe191adc5f99bc12bdddc92,2020-12-21_22h27.28.514,FlowerSimilarity_Experiment,2020.1.2,MacIntel,60,5fe17d4a51f3a9c1a60f9869,,,,,,,,,,,,,,,,,,,6,PF,,7,2.136,,,,,,,,,,,,,,,,,,,,,,,,,,,,,,,,,55,160,1,0,0,response1disk,8,43,-9,1,1,0,0,rectangle,-9,1,1,0,0,0,2,"[71,165,65,197,95,206,291,185,191,47,224,256,302,26,195,40,81,2,27,140]",-9,1,1,0,0,0,42,42,64,1,,,,,,,,,,,,,,,,,,,,,,,
,,,,,,,,,,,,,,,,,,,,,,,,,,,,,,,,,,,,,,,,,,,5eabafe3df23cb199481dcf7,5fe191adc5f99bc12bdddc92,2020-12-21_22h27.28.514,FlowerSimilarity_Experiment,2020.1.2,MacIntel,60,5fe17d4a51f3a9c1a60f9869,,,,,,,,,,,,,,,,,,,5,PF,,7,1.202,,,,,,,,,,,,,,,,,,,,,,,,,,,,,,,,,58,150,1,0,0,response1disk,4,44,-10,4,1,0,0,rectangle,-10,4,1,0,0,0,0,"[71,165,65,197,95,206,291,185,191,47,224,256,302,26,195,40,81,2,27,140]",-10,4,1,0,0,0,43,43,54,1,,,,,,,,,,,,,,,,,,,,,,,
,,,,,,,,,,,,,,,,,,,,,,,,,,,,,,,,,,,,,,,,,,,5eabafe3df23cb199481dcf7,5fe191adc5f99bc12bdddc92,2020-12-21_22h27.28.514,FlowerSimilarity_Experiment,2020.1.2,MacIntel,60,5fe17d4a51f3a9c1a60f9869,,,,,,,,,,,,,,,,,,,3,PF,,2,2.718,,,,,,,,,,,,,,,,,,,,,,,,,,,,,,,,,-139,-78,1,0,0,response5disk,3,45,-7,-13,1,0,0,rectangle,-7,-13,1,0,0,0,6,"[71,165,65,197,95,206,291,185,191,47,224,256,302,26,195,40,81,2,27,140]",-7,-13,1,0,0,0,44,44,4,1,,,,,,,,,,,,,,,,,,,,,,,
,,,,,,,,,,,,,,,,,,,,,,,,,,,,,,,,,,,,,,,,,,,5eabafe3df23cb199481dcf7,5fe191adc5f99bc12bdddc92,2020-12-21_22h27.28.514,FlowerSimilarity_Experiment,2020.1.2,MacIntel,60,5fe17d4a51f3a9c1a60f9869,,,,,,,,,,,,,,,,,,,7,PF,,0,1.577,,,,,,,,,,,,,,,,,,,,,,,,,,,,,,,,,-55,165,1,0,0,response7disk,3,46,-7,-4,1,0,0,rectangle,-7,-4,1,0,0,0,7,"[71,165,65,197,95,206,291,185,191,47,224,256,302,26,195,40,81,2,27,140]",-7,-4,1,0,0,0,45,45,81,1,,,,,,,,,,,,,,,,,,,,,,,
,,,,,,,,,,,,,,,,,,,,,,,,,,,,,,,,,,,,,,,,,,,5eabafe3df23cb199481dcf7,5fe191adc5f99bc12bdddc92,2020-12-21_22h27.28.514,FlowerSimilarity_Experiment,2020.1.2,MacIntel,60,5fe17d4a51f3a9c1a60f9869,,,,,,,,,,,,,,,,,,,8,PF,,7,1.069,,,,,,,,,,,,,,,,,,,,,,,,,,,,,,,,,71,180,1,0,0,response1disk,4,47,0,9,1,0,0,rectangle,56,159,1,0,0,7,7,"[71,165,65,197,95,206,291,185,191,47,224,256,302,26,195,40,81,2,27,140]",1,-1,1,0,0,0,46,46,78,1,response1disk_3,rectangle,,,,,,,,,,,,,,,,,,,,,
,,,,,,,,,,,,,,,,,,,,,,,,,,,,,,,,,,,,,,,,,,,5eabafe3df23cb199481dcf7,5fe191adc5f99bc12bdddc92,2020-12-21_22h27.28.514,FlowerSimilarity_Experiment,2020.1.2,MacIntel,60,5fe17d4a51f3a9c1a60f9869,,,,,,,,,,,,,,,,,,,4,FF,,7,1.369,,,,,,,,,,,,,,,,,,,,,,,,,,,,,,,,,64,141,1,0,0,response1disk,8,48,-4,4,1,0,0,rectangle,-4,4,1,0,0,7,7,"[71,165,65,197,95,206,291,185,191,47,224,256,302,26,195,40,81,2,27,140]",-4,4,1,0,0,0,47,47,35,1,,,,,,,,,,,,,,,,,,,,,,,
,,,,,,,,,,,,,,,,,,,,,,,,,,,,,,,,,,,,,,,,,,,5eabafe3df23cb199481dcf7,5fe191adc5f99bc12bdddc92,2020-12-21_22h27.28.514,FlowerSimilarity_Experiment,2020.1.2,MacIntel,60,5fe17d4a51f3a9c1a60f9869,,,,,,,,,,,,,,,,,,,6,FF,,7,1.119,,,,,,,,,,,,,,,,,,,,,,,,,,,,,,,,,61,165,1,0,0,response1disk,7,49,-6,9,1,0,0,rectangle,-6,9,1,0,0,7,1,"[71,165,65,197,95,206,291,185,191,47,224,256,302,26,195,40,81,2,27,140]",-6,9,1,0,0,0,48,48,18,1,,,,,,,,,,,,,,,,,,,,,,,
,,,,,,,,,,,,,,,,,,,,,,,,,,,,,,,,,,,,,,,,,,,5eabafe3df23cb199481dcf7,5fe191adc5f99bc12bdddc92,2020-12-21_22h27.28.514,FlowerSimilarity_Experiment,2020.1.2,MacIntel,60,5fe17d4a51f3a9c1a60f9869,,,,,,,,,,,,,,,,,,,7,FF,,6,1.335,,,,,,,,,,,,,,,,,,,,,,,,,,,,,,,,,137,76,1,0,0,response1disk,8,50,-5,16,1,0,0,rectangle,-5,16,1,0,0,7,0,"[71,165,65,197,95,206,291,185,191,47,224,256,302,26,195,40,81,2,27,140]",-5,16,1,0,0,0,49,49,97,1,,,,,,,,,,,,,,,,,,,,,,,
,,,,,,,,,,,,,,,,,,,,,,,,,,,,,,,,,,,,,,,,,,,5eabafe3df23cb199481dcf7,5fe191adc5f99bc12bdddc92,2020-12-21_22h27.28.514,FlowerSimilarity_Experiment,2020.1.2,MacIntel,60,5fe17d4a51f3a9c1a60f9869,,,,,,,,,,,,,,,,,,,8,FF,,7,2.403,,,,,,,,,,,,,,,,,,,,,,,,,,,,,,,,,64,148,1,0,0,response1disk,1,51,0,-6,1,0,0,rectangle,0,-6,1,0,0,7,2,"[71,165,65,197,95,206,291,185,191,47,224,256,302,26,195,40,81,2,27,140]",0,-6,1,0,0,0,50,50,20,1,,,,,,,,,,,,,,,,,,,,,,,
,,,,,,,,,,,,,,,,,,,,,,,,,,,,,,,,,,,,,,,,,,,5eabafe3df23cb199481dcf7,5fe191adc5f99bc12bdddc92,2020-12-21_22h27.28.514,FlowerSimilarity_Experiment,2020.1.2,MacIntel,60,5fe17d4a51f3a9c1a60f9869,,,,,,,,,,,,,,,,,,,1,FF,,7,1.035,,,,,,,,,,,,,,,,,,,,,,,,,,,,,,,,,68,151,1,0,0,response1disk,3,52,-9,4,1,0,0,rectangle,-9,4,1,0,0,7,7,"[71,165,65,197,95,206,291,185,191,47,224,256,302,26,195,40,81,2,27,140]",-9,4,1,0,0,0,51,51,99,1,,,,,,,,,,,,,,,,,,,,,,,
,,,,,,,,,,,,,,,,,,,,,,,,,,,,,,,,,,,,,,,,,,,5eabafe3df23cb199481dcf7,5fe191adc5f99bc12bdddc92,2020-12-21_22h27.28.514,FlowerSimilarity_Experiment,2020.1.2,MacIntel,60,5fe17d4a51f3a9c1a60f9869,,,,,,,,,,,,,,,,,,,2,FF,,7,0.868,,,,,,,,,,,,,,,,,,,,,,,,,,,,,,,,,67,127,1,0,0,response1disk,6,53,-21,-2,1,0,0,rectangle,-21,-2,1,0,0,7,2,"[71,165,65,197,95,206,291,185,191,47,224,256,302,26,195,40,81,2,27,140]",-21,-2,1,0,0,0,52,52,40,1,,,,,,,,,,,,,,,,,,,,,,,
,,,,,,,,,,,,,,,,,,,,,,,,,,,,,,,,,,,,,,,,,,,5eabafe3df23cb199481dcf7,5fe191adc5f99bc12bdddc92,2020-12-21_22h27.28.514,FlowerSimilarity_Experiment,2020.1.2,MacIntel,60,5fe17d4a51f3a9c1a60f9869,,,,,,,,,,,,,,,,,,,4,PF,,7,1.234,,,,,,,,,,,,,,,,,,,,,,,,,,,,,,,,,72,132,1,0,0,response1disk,3,54,-1,8,1,0,0,rectangle,-1,8,1,0,0,7,2,"[71,165,65,197,95,206,291,185,191,47,224,256,302,26,195,40,81,2,27,140]",-1,8,1,0,0,0,53,53,89,1,,,,,,,,,,,,,,,,,,,,,,,
,,,,,,,,,,,,,,,,,,,,,,,,,,,,,,,,,,,,,,,,,,,5eabafe3df23cb199481dcf7,5fe191adc5f99bc12bdddc92,2020-12-21_22h27.28.514,FlowerSimilarity_Experiment,2020.1.2,MacIntel,60,5fe17d4a51f3a9c1a60f9869,,,,,,,,,,,,,,,,,,,2,PF,,6,1.201,,,,,,,,,,,,,,,,,,,,,,,,,,,,,,,,,170,70,1,0,0,response1disk,4,55,9,9,1,0,0,rectangle,9,9,1,0,0,7,4,"[71,165,65,197,95,206,291,185,191,47,224,256,302,26,195,40,81,2,27,140]",9,9,1,0,0,0,54,54,127,1,,,,,,,,,,,,,,,,,,,,,,,
,,,,,,,,,,,,,,,,,,,,,,,,,,,,,,,,,,,,,,,,,,,5eabafe3df23cb199481dcf7,5fe191adc5f99bc12bdddc92,2020-12-21_22h27.28.514,FlowerSimilarity_Experiment,2020.1.2,MacIntel,60,5fe17d4a51f3a9c1a60f9869,,,,,,,,,,,,,,,,,,,8,PF,,7,1.417,,,,,,,,,,,,,,,,,,,,,,,,,,,,,,,,,66,147,1,0,0,response1disk,6,56,14,11,1,0,0,rectangle,14,11,1,0,0,7,0,"[71,165,65,197,95,206,291,185,191,47,224,256,302,26,195,40,81,2,27,140]",14,11,1,0,0,0,55,55,161,1,,,,,,,,,,,,,,,,,,,,,,,
,,,,,,,,,,,,,,,,,,,,,,,,,,,,,,,,,,,,,,,,,,,5eabafe3df23cb199481dcf7,5fe191adc5f99bc12bdddc92,2020-12-21_22h27.28.514,FlowerSimilarity_Experiment,2020.1.2,MacIntel,60,5fe17d4a51f3a9c1a60f9869,,,,,,,,,,,,,,,,,,,3,FF,,5,1.135,,,,,,,,,,,,,,,,,,,,,,,,,,,,,,,,,136,-78,1,0,0,response3disk,5,57,-2,-2,1,0,0,rectangle,-2,-2,1,0,0,7,1,"[71,165,65,197,95,206,291,185,191,47,224,256,302,26,195,40,81,2,27,140]",-2,-2,1,0,0,0,56,56,101,1,,,,,,,,,,,,,,,,,,,,,,,
,,,,,,,,,,,,,,,,,,,,,,,,,,,,,,,,,,,,,,,,,,,5eabafe3df23cb199481dcf7,5fe191adc5f99bc12bdddc92,2020-12-21_22h27.28.514,FlowerSimilarity_Experiment,2020.1.2,MacIntel,60,5fe17d4a51f3a9c1a60f9869,,,,,,,,,,,,,,,,,,,1,FF,,6,1.969,,,,,,,,,,,,,,,,,,,,,,,,,,,,,,,,,150,66,1,0,0,response1disk,6,58,23,13,1,0,0,rectangle,23,13,1,0,0,7,2,"[71,165,65,197,95,206,291,185,191,47,224,256,302,26,195,40,81,2,27,140]",23,13,1,0,0,0,57,57,58,1,,,,,,,,,,,,,,,,,,,,,,,
,,,,,,,,,,,,,,,,,,,,,,,,,,,,,,,,,,,,,,,,,,,5eabafe3df23cb199481dcf7,5fe191adc5f99bc12bdddc92,2020-12-21_22h27.28.514,FlowerSimilarity_Experiment,2020.1.2,MacIntel,60,5fe17d4a51f3a9c1a60f9869,,,,,,,,,,,,,,,,,,,7,FF,,7,2.285,,,,,,,,,,,,,,,,,,,,,,,,,,,,,,,,,71,145,1,0,0,response1disk,9,59,-11,0,1,0,0,rectangle,-11,0,1,0,0,7,5,"[71,165,65,197,95,206,291,185,191,47,224,256,302,26,195,40,81,2,27,140]",-11,0,1,0,0,0,58,58,155,1,,,,,,,,,,,,,,,,,,,,,,,
,,,,,,,,,,,,,,,,,,,,,,,,,,,,,,,,,,,,,,,,,,,5eabafe3df23cb199481dcf7,5fe191adc5f99bc12bdddc92,2020-12-21_22h27.28.514,FlowerSimilarity_Experiment,2020.1.2,MacIntel,60,5fe17d4a51f3a9c1a60f9869,,,,,,,,,,,,,,,,,,,2,FF,,7,0.986,,,,,,,,,,,,,,,,,,,,,,,,,,,,,,,,,46,112,1,0,0,response1disk,3,60,9,1,1,0,0,rectangle,9,1,1,0,0,7,7,"[71,165,65,197,95,206,291,185,191,47,224,256,302,26,195,40,81,2,27,140]",9,1,1,0,0,0,59,59,104,1,,,,,,,,,,,,,,,,,,,,,,,
,,,,,,,,,,,,,,,,,,,,,,,,,,,,,,,,,,,,,,,,,,,5eabafe3df23cb199481dcf7,5fe191adc5f99bc12bdddc92,2020-12-21_22h27.28.514,FlowerSimilarity_Experiment,2020.1.2,MacIntel,60,5fe17d4a51f3a9c1a60f9869,,,,,,,,,,,,,,,,,,,3,PF,,7,1.235,,,,,,,,,,,,,,,,,,,,,,,,,,,,,,,,,67,144,1,0,0,response1disk,4,61,2,3,1,0,0,rectangle,2,3,1,0,0,7,4,"[71,165,65,197,95,206,291,185,191,47,224,256,302,26,195,40,81,2,27,140]",2,3,1,0,0,0,60,60,30,1,,,,,,,,,,,,,,,,,,,,,,,
,,,,,,,,,,,,,,,,,,,,,,,,,,,,,,,,,,,,,,,,,,,5eabafe3df23cb199481dcf7,5fe191adc5f99bc12bdddc92,2020-12-21_22h27.28.514,FlowerSimilarity_Experiment,2020.1.2,MacIntel,60,5fe17d4a51f3a9c1a60f9869,,,,,,,,,,,,,,,,,,,6,PF,,0,1.32,,,,,,,,,,,,,,,,,,,,,,,,,,,,,,,,,-92,151,1,0,0,response7disk,6,62,1,-4,1,0,0,rectangle,1,-4,1,0,0,7,0,"[71,165,65,197,95,206,291,185,191,47,224,256,302,26,195,40,81,2,27,140]",1,-4,1,0,0,0,61,61,0,1,,,,,,,,,,,,,,,,,,,,,,,
,,,,,,,,,,,,,,,,,,,,,,,,,,,,,,,,,,,,,,,,,,,5eabafe3df23cb199481dcf7,5fe191adc5f99bc12bdddc92,2020-12-21_22h27.28.514,FlowerSimilarity_Experiment,2020.1.2,MacIntel,60,5fe17d4a51f3a9c1a60f9869,,,,,,,,,,,,,,,,,,,2,FF,,2,2.603,,,,,,,,,,,,,,,,,,,,,,,,,,,,,,,,,-135,-53,1,0,0,response5disk,9,63,-17,-5,1,0,0,rectangle,-17,-5,1,0,0,7,2,"[71,165,65,197,95,206,291,185,191,47,224,256,302,26,195,40,81,2,27,140]",-17,-5,1,0,0,0,62,62,72,1,,,,,,,,,,,,,,,,,,,,,,,
,,,,,,,,,,,,,,,,,,,,,,,,,,,,,,,,,,,,,,,,,,,5eabafe3df23cb199481dcf7,5fe191adc5f99bc12bdddc92,2020-12-21_22h27.28.514,FlowerSimilarity_Experiment,2020.1.2,MacIntel,60,5fe17d4a51f3a9c1a60f9869,,,,,,,,,,,,,,,,,,,5,FF,,2,1.736,,,,,,,,,,,,,,,,,,,,,,,,,,,,,,,,,-113,-50,1,0,0,response5disk,2,64,-25,-3,1,0,0,rectangle,-25,-3,1,0,0,7,3,"[71,165,65,197,95,206,291,185,191,47,224,256,302,26,195,40,81,2,27,140]",-25,-3,1,0,0,0,63,63,55,1,,,,,,,,,,,,,,,,,,,,,,,
,,,,,,,,,,,,,,,,,,,,,,,,,,,,,,,,,,,,,,,,,,,5eabafe3df23cb199481dcf7,5fe191adc5f99bc12bdddc92,2020-12-21_22h27.28.514,FlowerSimilarity_Experiment,2020.1.2,MacIntel,60,5fe17d4a51f3a9c1a60f9869,,,,,,,,,,,,,,,,,,,7,FF,,7,1.634,,,,,,,,,,,,,,,,,,,,,,,,,,,,,,,,,58,104,1,0,0,response1disk,6,65,-1,18,1,0,0,rectangle,142,-58,1,0,0,5,5,"[71,165,65,197,95,206,291,185,191,47,224,256,302,26,195,40,81,2,27,140]",9,3,1,0,0,0,64,64,31,1,response3disk_3,rectangle,,,,,,,,,,,,,,,,,,,,,
,,,,,,,,,,,,,,,,,,,,,,,,,,,,,,,,,,,,,,,,,,,5eabafe3df23cb199481dcf7,5fe191adc5f99bc12bdddc92,2020-12-21_22h27.28.514,FlowerSimilarity_Experiment,2020.1.2,MacIntel,60,5fe17d4a51f3a9c1a60f9869,,,,,,,,,,,,,,,,,,,3,FF,,4,2.4,,,,,,,,,,,,,,,,,,,,,,,,,,,,,,,,,65,-153,1,0,0,response3disk,1,66,-3,4,1,0,0,rectangle,-3,4,1,0,0,5,6,"[71,165,65,197,95,206,291,185,191,47,224,256,302,26,195,40,81,2,27,140]",-3,4,1,0,0,0,65,65,125,1,,,,,,,,,,,,,,,,,,,,,,,
,,,,,,,,,,,,,,,,,,,,,,,,,,,,,,,,,,,,,,,,,,,5eabafe3df23cb199481dcf7,5fe191adc5f99bc12bdddc92,2020-12-21_22h27.28.514,FlowerSimilarity_Experiment,2020.1.2,MacIntel,60,5fe17d4a51f3a9c1a60f9869,,,,,,,,,,,,,,,,,,,9,PF,,3,1.394,,,,,,,,,,,,,,,,,,,,,,,,,,,,,,,,,-67,-129,1,0,0,response5disk,2,67,1,-2,1,0,0,rectangle,1,-2,1,0,0,5,7,"[71,165,65,197,95,206,291,185,191,47,224,256,302,26,195,40,81,2,27,140]",1,-2,1,0,0,0,66,66,157,1,,,,,,,,,,,,,,,,,,,,,,,
,,,,,,,,,,,,,,,,,,,,,,,,,,,,,,,,,,,,,,,,,,,5eabafe3df23cb199481dcf7,5fe191adc5f99bc12bdddc92,2020-12-21_22h27.28.514,FlowerSimilarity_Experiment,2020.1.2,MacIntel,60,5fe17d4a51f3a9c1a60f9869,,,,,,,,,,,,,,,,,,,4,PF,,7,1.119,,,,,,,,,,,,,,,,,,,,,,,,,,,,,,,,,62,144,1,0,0,response1disk,9,68,2,-2,1,0,0,rectangle,2,-2,1,0,0,5,0,"[71,165,65,197,95,206,291,185,191,47,224,256,302,26,195,40,81,2,27,140]",2,-2,1,0,0,0,67,67,75,1,,,,,,,,,,,,,,,,,,,,,,,
,,,,,,,,,,,,,,,,,,,,,,,,,,,,,,,,,,,,,,,,,,,5eabafe3df23cb199481dcf7,5fe191adc5f99bc12bdddc92,2020-12-21_22h27.28.514,FlowerSimilarity_Experiment,2020.1.2,MacIntel,60,5fe17d4a51f3a9c1a60f9869,,,,,,,,,,,,,,,,,,,9,PF,,7,1.451,,,,,,,,,,,,,,,,,,,,,,,,,,,,,,,,,59,108,1,0,0,response1disk,7,69,-7,-14,1,0,0,rectangle,-7,-14,1,0,0,5,6,"[71,165,65,197,95,206,291,185,191,47,224,256,302,26,195,40,81,2,27,140]",-7,-14,1,0,0,0,68,68,121,1,,,,,,,,,,,,,,,,,,,,,,,
,,,,,,,,,,,,,,,,,,,,,,,,,,,,,,,,,,,,,,,,,,,5eabafe3df23cb199481dcf7,5fe191adc5f99bc12bdddc92,2020-12-21_22h27.28.514,FlowerSimilarity_Experiment,2020.1.2,MacIntel,60,5fe17d4a51f3a9c1a60f9869,,,,,,,,,,,,,,,,,,,2,FF,,4,1.953,,,,,,,,,,,,,,,,,,,,,,,,,,,,,,,,,45,-127,1,0,0,response3disk,5,70,-4,-3,1,0,0,rectangle,-4,-3,1,0,0,5,2,"[71,165,65,197,95,206,291,185,191,47,224,256,302,26,195,40,81,2,27,140]",-4,-3,1,0,0,0,69,69,80,1,,,,,,,,,,,,,,,,,,,,,,,
,,,,,,,,,,,,,,,,,,,,,,,,,,,,,,,,,,,,,,,,,,,5eabafe3df23cb199481dcf7,5fe191adc5f99bc12bdddc92,2020-12-21_22h27.28.514,FlowerSimilarity_Experiment,2020.1.2,MacIntel,60,5fe17d4a51f3a9c1a60f9869,,,,,,,,,,,,,,,,,,,9,FF,,3,1.569,,,,,,,,,,,,,,,,,,,,,,,,,,,,,,,,,-87,-137,1,0,0,response5disk,4,71,6,0,1,0,0,rectangle,-142,-62,1,0,0,5,2,"[71,165,65,197,95,206,291,185,191,47,224,256,302,26,195,40,81,2,27,140]",-5,8,1,0,0,0,70,70,60,1,response5disk_3,rectangle,,,,,,,,,,,,,,,,,,,,,
,,,,,,,,,,,,,,,,,,,,,,,,,,,,,,,,,,,,,,,,,,,5eabafe3df23cb199481dcf7,5fe191adc5f99bc12bdddc92,2020-12-21_22h27.28.514,FlowerSimilarity_Experiment,2020.1.2,MacIntel,60,5fe17d4a51f3a9c1a60f9869,,,,,,,,,,,,,,,,,,,1,FF,,5,1.973,,,,,,,,,,,,,,,,,,,,,,,,,,,,,,,,,127,-51,1,0,0,response3disk,8,72,8,-7,1,0,0,rectangle,8,-7,1,0,0,5,3,"[71,165,65,197,95,206,291,185,191,47,224,256,302,26,195,40,81,2,27,140]",8,-7,1,0,0,0,71,71,27,1,,,,,,,,,,,,,,,,,,,,,,,
,,,,,,,,,,,,,,,,,,,,,,,,,,,,,,,,,,,,,,,,,,,5eabafe3df23cb199481dcf7,5fe191adc5f99bc12bdddc92,2020-12-21_22h27.28.514,FlowerSimilarity_Experiment,2020.1.2,MacIntel,60,5fe17d4a51f3a9c1a60f9869,,,,,,,,,,,,,,,,,,,2,PF,,0,1.619,,,,,,,,,,,,,,,,,,,,,,,,,,,,,,,,,-47,165,1,0,0,response7disk,2,73,-2,-5,1,0,0,rectangle,-2,-5,1,0,0,5,7,"[71,165,65,197,95,206,291,185,191,47,224,256,302,26,195,40,81,2,27,140]",-2,-5,1,0,0,0,72,72,14,1,,,,,,,,,,,,,,,,,,,,,,,
,,,,,,,,,,,,,,,,,,,,,,,,,,,,,,,,,,,,,,,,,,,5eabafe3df23cb199481dcf7,5fe191adc5f99bc12bdddc92,2020-12-21_22h27.28.514,FlowerSimilarity_Experiment,2020.1.2,MacIntel,60,5fe17d4a51f3a9c1a60f9869,,,,,,,,,,,,,,,,,,,8,FF,,2,2.869,,,,,,,,,,,,,,,,,,,,,,,,,,,,,,,,,-123,-44,1,0,0,response5disk,6,74,-13,0,1,0,0,rectangle,-13,0,1,0,0,5,2,"[71,165,65,197,95,206,291,185,191,47,224,256,302,26,195,40,81,2,27,140]",-13,0,1,0,0,0,73,73,37,1,,,,,,,,,,,,,,,,,,,,,,,
,,,,,,,,,,,,,,,,,,,,,,,,,,,,,,,,,,,,,,,,,,,5eabafe3df23cb199481dcf7,5fe191adc5f99bc12bdddc92,2020-12-21_22h27.28.514,FlowerSimilarity_Experiment,2020.1.2,MacIntel,60,5fe17d4a51f3a9c1a60f9869,,,,,,,,,,,,,,,,,,,5,PF,,4,3.203,,,,,,,,,,,,,,,,,,,,,,,,,,,,,,,,,46,-117,1,0,0,response3disk,1,75,2,-19,1,0,0,rectangle,2,-19,1,0,0,5,2,"[71,165,65,197,95,206,291,185,191,47,224,256,302,26,195,40,81,2,27,140]",2,-19,1,0,0,0,74,74,159,1,,,,,,,,,,,,,,,,,,,,,,,
,,,,,,,,,,,,,,,,,,,,,,,,,,,,,,,,,,,,,,,,,,,5eabafe3df23cb199481dcf7,5fe191adc5f99bc12bdddc92,2020-12-21_22h27.28.514,FlowerSimilarity_Experiment,2020.1.2,MacIntel,60,5fe17d4a51f3a9c1a60f9869,,,,,,,,,,,,,,,,,,,3,PF,,4,2.62,,,,,,,,,,,,,,,,,,,,,,,,,,,,,,,,,49,-124,1,0,0,response3disk,5,76,-10,-5,1,0,0,rectangle,-10,-5,1,0,0,5,5,"[71,165,65,197,95,206,291,185,191,47,224,256,302,26,195,40,81,2,27,140]",-10,-5,1,0,0,0,75,75,66,1,,,,,,,,,,,,,,,,,,,,,,,
,,,,,,,,,,,,,,,,,,,,,,,,,,,,,,,,,,,,,,,,,,,5eabafe3df23cb199481dcf7,5fe191adc5f99bc12bdddc92,2020-12-21_22h27.28.514,FlowerSimilarity_Experiment,2020.1.2,MacIntel,60,5fe17d4a51f3a9c1a60f9869,,,,,,,,,,,,,,,,,,,6,FF,,7,1.571,,,,,,,,,,,,,,,,,,,,,,,,,,,,,,,,,58,160,1,0,0,response1disk,3,77,3,1,1,0,0,rectangle,3,1,1,0,0,5,5,"[71,165,65,197,95,206,291,185,191,47,224,256,302,26,195,40,81,2,27,140]",3,1,1,0,0,0,76,76,21,1,,,,,,,,,,,,,,,,,,,,,,,
,,,,,,,,,,,,,,,,,,,,,,,,,,,,,,,,,,,,,,,,,,,5eabafe3df23cb199481dcf7,5fe191adc5f99bc12bdddc92,2020-12-21_22h27.28.514,FlowerSimilarity_Experiment,2020.1.2,MacIntel,60,5fe17d4a51f3a9c1a60f9869,,,,,,,,,,,,,,,,,,,4,FF,,7,1.101,,,,,,,,,,,,,,,,,,,,,,,,,,,,,,,,,68,137,1,0,0,response1disk,3,78,14,-6,1,0,0,rectangle,14,-6,1,0,0,5,4,"[71,165,65,197,95,206,291,185,191,47,224,256,302,26,195,40,81,2,27,140]",14,-6,1,0,0,0,77,77,77,1,,,,,,,,,,,,,,,,,,,,,,,
,,,,,,,,,,,,,,,,,,,,,,,,,,,,,,,,,,,,,,,,,,,5eabafe3df23cb199481dcf7,5fe191adc5f99bc12bdddc92,2020-12-21_22h27.28.514,FlowerSimilarity_Experiment,2020.1.2,MacIntel,60,5fe17d4a51f3a9c1a60f9869,,,,,,,,,,,,,,,,,,,9,PF,,6,3.019,,,,,,,,,,,,,,,,,,,,,,,,,,,,,,,,,152,69,1,0,0,response1disk,6,79,-7,-1,1,0,0,rectangle,-7,-1,1,0,0,5,5,"[71,165,65,197,95,206,291,185,191,47,224,256,302,26,195,40,81,2,27,140]",-7,-1,1,0,0,0,78,78,148,1,,,,,,,,,,,,,,,,,,,,,,,
,,,,,,,,,,,,,,,,,,,,,,,,,,,,,,,,,,,,,,,,,,,5eabafe3df23cb199481dcf7,5fe191adc5f99bc12bdddc92,2020-12-21_22h27.28.514,FlowerSimilarity_Experiment,2020.1.2,MacIntel,60,5fe17d4a51f3a9c1a60f9869,,,,,,,,,,,,,,,,,,,5,PF,,6,1.651,,,,,,,,,,,,,,,,,,,,,,,,,,,,,,,,,148,70,1,0,0,response1disk,5,80,26,3,1,0,0,rectangle,26,3,1,0,0,5,5,"[71,165,65,197,95,206,291,185,191,47,224,256,302,26,195,40,81,2,27,140]",26,3,1,0,0,0,79,79,94,1,,,,,,,,,,,,,,,,,,,,,,,
,,,,,,,,,,,,,,,,,,,,,,,,,,,,,,,,,,,,,,,,,,,5eabafe3df23cb199481dcf7,5fe191adc5f99bc12bdddc92,2020-12-21_22h27.28.514,FlowerSimilarity_Experiment,2020.1.2,MacIntel,60,5fe17d4a51f3a9c1a60f9869,,,,,,,,,,,,,,,,,,,3,PF,,7,1.185,,,,,,,,,,,,,,,,,,,,,,,,,,,,,,,,,67,163,1,0,0,response1disk,8,81,-12,-1,1,0,0,rectangle,156,65,1,0,0,6,6,"[71,165,65,197,95,206,291,185,191,47,224,256,302,26,195,40,81,2,27,140]",-13,-4,1,0,0,0,80,80,3,1,response1disk_3,rectangle,,,,,,,,,,,,,,,,,,,,,
,,,,,,,,,,,,,,,,,,,,,,,,,,,,,,,,,,,,,,,,,,,5eabafe3df23cb199481dcf7,5fe191adc5f99bc12bdddc92,2020-12-21_22h27.28.514,FlowerSimilarity_Experiment,2020.1.2,MacIntel,60,5fe17d4a51f3a9c1a60f9869,,,,,,,,,,,,,,,,,,,2,FF,,0,1.235,,,,,,,,,,,,,,,,,,,,,,,,,,,,,,,,,-64,158,1,0,0,response7disk,2,82,-5,1,1,0,0,rectangle,-5,1,1,0,0,6,6,"[71,165,65,197,95,206,291,185,191,47,224,256,302,26,195,40,81,2,27,140]",-5,1,1,0,0,0,81,81,142,1,,,,,,,,,,,,,,,,,,,,,,,
,,,,,,,,,,,,,,,,,,,,,,,,,,,,,,,,,,,,,,,,,,,5eabafe3df23cb199481dcf7,5fe191adc5f99bc12bdddc92,2020-12-21_22h27.28.514,FlowerSimilarity_Experiment,2020.1.2,MacIntel,60,5fe17d4a51f3a9c1a60f9869,,,,,,,,,,,,,,,,,,,7,PF,,4,2.17,,,,,,,,,,,,,,,,,,,,,,,,,,,,,,,,,79,-136,1,0,0,response3disk,9,83,8,-7,1,0,0,rectangle,8,-7,1,0,0,6,4,"[71,165,65,197,95,206,291,185,191,47,224,256,302,26,195,40,81,2,27,140]",8,-7,1,0,0,0,82,82,10,1,,,,,,,,,,,,,,,,,,,,,,,
,,,,,,,,,,,,,,,,,,,,,,,,,,,,,,,,,,,,,,,,,,,5eabafe3df23cb199481dcf7,5fe191adc5f99bc12bdddc92,2020-12-21_22h27.28.514,FlowerSimilarity_Experiment,2020.1.2,MacIntel,60,5fe17d4a51f3a9c1a60f9869,,,,,,,,,,,,,,,,,,,3,PF,,7,1.456,,,,,,,,,,,,,,,,,,,,,,,,,,,,,,,,,73,168,1,0,0,response1disk,9,84,-7,-7,1,0,0,rectangle,-7,-7,1,0,0,6,7,"[71,165,65,197,95,206,291,185,191,47,224,256,302,26,195,40,81,2,27,140]",-7,-7,1,0,0,0,83,83,79,1,,,,,,,,,,,,,,,,,,,,,,,
,,,,,,,,,,,,,,,,,,,,,,,,,,,,,,,,,,,,,,,,,,,5eabafe3df23cb199481dcf7,5fe191adc5f99bc12bdddc92,2020-12-21_22h27.28.514,FlowerSimilarity_Experiment,2020.1.2,MacIntel,60,5fe17d4a51f3a9c1a60f9869,,,,,,,,,,,,,,,,,,,4,PF,,7,1.385,,,,,,,,,,,,,,,,,,,,,,,,,,,,,,,,,61,160,1,0,0,response1disk,5,85,-2,0,1,0,0,rectangle,-2,0,1,0,0,6,6,"[71,165,65,197,95,206,291,185,191,47,224,256,302,26,195,40,81,2,27,140]",-2,0,1,0,0,0,84,84,49,1,,,,,,,,,,,,,,,,,,,,,,,
,,,,,,,,,,,,,,,,,,,,,,,,,,,,,,,,,,,,,,,,,,,5eabafe3df23cb199481dcf7,5fe191adc5f99bc12bdddc92,2020-12-21_22h27.28.514,FlowerSimilarity_Experiment,2020.1.2,MacIntel,60,5fe17d4a51f3a9c1a60f9869,,,,,,,,,,,,,,,,,,,9,FF,,5,1.734,,,,,,,,,,,,,,,,,,,,,,,,,,,,,,,,,97,-58,1,0,0,response3disk,2,86,24,-19,1,0,0,rectangle,24,-19,1,0,0,6,7,"[71,165,65,197,95,206,291,185,191,47,224,256,302,26,195,40,81,2,27,140]",24,-19,1,0,0,0,85,85,11,1,,,,,,,,,,,,,,,,,,,,,,,
,,,,,,,,,,,,,,,,,,,,,,,,,,,,,,,,,,,,,,,,,,,5eabafe3df23cb199481dcf7,5fe191adc5f99bc12bdddc92,2020-12-21_22h27.28.514,FlowerSimilarity_Experiment,2020.1.2,MacIntel,60,5fe17d4a51f3a9c1a60f9869,,,,,,,,,,,,,,,,,,,5,PF,,7,1.115,,,,,,,,,,,,,,,,,,,,,,,,,,,,,,,,,50,155,1,0,0,response1disk,3,87,-4,-12,1,0,0,rectangle,-4,-12,1,0,0,6,1,"[71,165,65,197,95,206,291,185,191,47,224,256,302,26,195,40,81,2,27,140]",-4,-12,1,0,0,0,86,86,109,1,,,,,,,,,,,,,,,,,,,,,,,
,,,,,,,,,,,,,,,,,,,,,,,,,,,,,,,,,,,,,,,,,,,5eabafe3df23cb199481dcf7,5fe191adc5f99bc12bdddc92,2020-12-21_22h27.28.514,FlowerSimilarity_Experiment,2020.1.2,MacIntel,60,5fe17d4a51f3a9c1a60f9869,,,,,,,,,,,,,,,,,,,1,PF,,6,1.619,,,,,,,,,,,,,,,,,,,,,,,,,,,,,,,,,144,48,1,0,0,response1disk,2,88,-8,12,1,0,0,rectangle,-8,12,1,0,0,6,4,"[71,165,65,197,95,206,291,185,191,47,224,256,302,26,195,40,81,2,27,140]",-8,12,1,0,0,0,87,87,24,1,,,,,,,,,,,,,,,,,,,,,,,
,,,,,,,,,,,,,,,,,,,,,,,,,,,,,,,,,,,,,,,,,,,5eabafe3df23cb199481dcf7,5fe191adc5f99bc12bdddc92,2020-12-21_22h27.28.514,FlowerSimilarity_Experiment,2020.1.2,MacIntel,60,5fe17d4a51f3a9c1a60f9869,,,,,,,,,,,,,,,,,,,1,FF,,4,2.086,,,,,,,,,,,,,,,,,,,,,,,,,,,,,,,,,68,-129,1,0,0,response3disk,4,89,-17,-7,1,0,0,rectangle,-17,-7,1,0,0,6,2,"[71,165,65,197,95,206,291,185,191,47,224,256,302,26,195,40,81,2,27,140]",-17,-7,1,0,0,0,88,88,135,1,,,,,,,,,,,,,,,,,,,,,,,
,,,,,,,,,,,,,,,,,,,,,,,,,,,,,,,,,,,,,,,,,,,5eabafe3df23cb199481dcf7,5fe191adc5f99bc12bdddc92,2020-12-21_22h27.28.514,FlowerSimilarity_Experiment,2020.1.2,MacIntel,60,5fe17d4a51f3a9c1a60f9869,,,,,,,,,,,,,,,,,,,4,FF,,0,1.068,,,,,,,,,,,,,,,,,,,,,,,,,,,,,,,,,-69,166,1,0,0,response7disk,4,90,-1,1,1,0,0,rectangle,-1,1,1,0,0,6,6,"[71,165,65,197,95,206,291,185,191,47,224,256,302,26,195,40,81,2,27,140]",-1,1,1,0,0,0,89,89,84,1,,,,,,,,,,,,,,,,,,,,,,,
,,,,,,,,,,,,,,,,,,,,,,,,,,,,,,,,,,,,,,,,,,,5eabafe3df23cb199481dcf7,5fe191adc5f99bc12bdddc92,2020-12-21_22h27.28.514,FlowerSimilarity_Experiment,2020.1.2,MacIntel,60,5fe17d4a51f3a9c1a60f9869,,,,,,,,,,,,,,,,,,,4,PF,,7,1.336,,,,,,,,,,,,,,,,,,,,,,,,,,,,,,,,,65,132,1,0,0,response1disk,8,91,-1,-1,1,0,0,rectangle,-1,-1,1,0,0,6,3,"[71,165,65,197,95,206,291,185,191,47,224,256,302,26,195,40,81,2,27,140]",-1,-1,1,0,0,0,90,90,124,1,,,,,,,,,,,,,,,,,,,,,,,
,,,,,,,,,,,,,,,,,,,,,,,,,,,,,,,,,,,,,,,,,,,5eabafe3df23cb199481dcf7,5fe191adc5f99bc12bdddc92,2020-12-21_22h27.28.514,FlowerSimilarity_Experiment,2020.1.2,MacIntel,60,5fe17d4a51f3a9c1a60f9869,,,,,,,,,,,,,,,,,,,7,FF,,5,1.486,,,,,,,,,,,,,,,,,,,,,,,,,,,,,,,,,112,-63,1,0,0,response3disk,2,92,-14,8,1,0,0,rectangle,-14,8,1,0,0,6,6,"[71,165,65,197,95,206,291,185,191,47,224,256,302,26,195,40,81,2,27,140]",-14,8,1,0,0,0,91,91,138,1,,,,,,,,,,,,,,,,,,,,,,,
,,,,,,,,,,,,,,,,,,,,,,,,,,,,,,,,,,,,,,,,,,,5eabafe3df23cb199481dcf7,5fe191adc5f99bc12bdddc92,2020-12-21_22h27.28.514,FlowerSimilarity_Experiment,2020.1.2,MacIntel,60,5fe17d4a51f3a9c1a60f9869,,,,,,,,,,,,,,,,,,,3,PF,,5,1.117,,,,,,,,,,,,,,,,,,,,,,,,,,,,,,,,,110,-47,1,0,0,response3disk,2,93,-1,2,1,0,0,rectangle,-1,2,1,0,0,6,0,"[71,165,65,197,95,206,291,185,191,47,224,256,302,26,195,40,81,2,27,140]",-1,2,1,0,0,0,92,92,36,1,,,,,,,,,,,,,,,,,,,,,,,
,,,,,,,,,,,,,,,,,,,,,,,,,,,,,,,,,,,,,,,,,,,5eabafe3df23cb199481dcf7,5fe191adc5f99bc12bdddc92,2020-12-21_22h27.28.514,FlowerSimilarity_Experiment,2020.1.2,MacIntel,60,5fe17d4a51f3a9c1a60f9869,,,,,,,,,,,,,,,,,,,8,FF,,2,2.452,,,,,,,,,,,,,,,,,,,,,,,,,,,,,,,,,-126,-40,1,0,0,response5disk,5,94,-18,3,1,0,0,rectangle,-18,3,1,0,0,6,1,"[71,165,65,197,95,206,291,185,191,47,224,256,302,26,195,40,81,2,27,140]",-18,3,1,0,0,0,93,93,152,1,,,,,,,,,,,,,,,,,,,,,,,
,,,,,,,,,,,,,,,,,,,,,,,,,,,,,,,,,,,,,,,,,,,5eabafe3df23cb199481dcf7,5fe191adc5f99bc12bdddc92,2020-12-21_22h27.28.514,FlowerSimilarity_Experiment,2020.1.2,MacIntel,60,5fe17d4a51f3a9c1a60f9869,,,,,,,,,,,,,,,,,,,4,FF,,3,1.567,,,,,,,,,,,,,,,,,,,,,,,,,,,,,,,,,-57,-111,1,0,0,response5disk,2,95,-16,-4,1,0,0,rectangle,68,-117,1,0,0,4,4,"[71,165,65,197,95,206,291,185,191,47,224,256,302,26,195,40,81,2,27,140]",3,2,1,0,0,0,94,94,13,1,response3disk_3,rectangle,,,,,,,,,,,,,,,,,,,,,
,,,,,,,,,,,,,,,,,,,,,,,,,,,,,,,,,,,,,,,,,,,5eabafe3df23cb199481dcf7,5fe191adc5f99bc12bdddc92,2020-12-21_22h27.28.514,FlowerSimilarity_Experiment,2020.1.2,MacIntel,60,5fe17d4a51f3a9c1a60f9869,,,,,,,,,,,,,,,,,,,2,FF,,4,1.693,,,,,,,,,,,,,,,,,,,,,,,,,,,,,,,,,58,-117,1,0,0,response3disk,8,96,-2,21,1,0,0,rectangle,-2,21,1,0,0,4,2,"[71,165,65,197,95,206,291,185,191,47,224,256,302,26,195,40,81,2,27,140]",-2,21,1,0,0,0,95,95,62,1,,,,,,,,,,,,,,,,,,,,,,,
,,,,,,,,,,,,,,,,,,,,,,,,,,,,,,,,,,,,,,,,,,,5eabafe3df23cb199481dcf7,5fe191adc5f99bc12bdddc92,2020-12-21_22h27.28.514,FlowerSimilarity_Experiment,2020.1.2,MacIntel,60,5fe17d4a51f3a9c1a60f9869,,,,,,,,,,,,,,,,,,,9,PF,,7,1.569,,,,,,,,,,,,,,,,,,,,,,,,,,,,,,,,,63,132,1,0,0,response1disk,3,97,-9,3,1,0,0,rectangle,-9,3,1,0,0,4,0,"[71,165,65,197,95,206,291,185,191,47,224,256,302,26,195,40,81,2,27,140]",-9,3,1,0,0,0,96,96,119,1,,,,,,,,,,,,,,,,,,,,,,,
,,,,,,,,,,,,,,,,,,,,,,,,,,,,,,,,,,,,,,,,,,,5eabafe3df23cb199481dcf7,5fe191adc5f99bc12bdddc92,2020-12-21_22h27.28.514,FlowerSimilarity_Experiment,2020.1.2,MacIntel,60,5fe17d4a51f3a9c1a60f9869,,,,,,,,,,,,,,,,,,,2,FF,,5,2.467,,,,,,,,,,,,,,,,,,,,,,,,,,,,,,,,,124,-34,1,0,0,response3disk,7,98,23,2,1,0,0,rectangle,23,2,1,0,0,4,7,"[71,165,65,197,95,206,291,185,191,47,224,256,302,26,195,40,81,2,27,140]",23,2,1,0,0,0,97,97,63,1,,,,,,,,,,,,,,,,,,,,,,,
,,,,,,,,,,,,,,,,,,,,,,,,,,,,,,,,,,,,,,,,,,,5eabafe3df23cb199481dcf7,5fe191adc5f99bc12bdddc92,2020-12-21_22h27.28.514,FlowerSimilarity_Experiment,2020.1.2,MacIntel,60,5fe17d4a51f3a9c1a60f9869,,,,,,,,,,,,,,,,,,,7,PF,,7,1.268,,,,,,,,,,,,,,,,,,,,,,,,,,,,,,,,,47,136,1,0,0,response1disk,6,99,-19,3,1,0,0,rectangle,-19,3,1,0,0,4,2,"[71,165,65,197,95,206,291,185,191,47,224,256,302,26,195,40,81,2,27,140]",-19,3,1,0,0,0,98,98,29,1,,,,,,,,,,,,,,,,,,,,,,,
,,,,,,,,,,,,,,,,,,,,,,,,,,,,,,,,,,,,,,,,,,,5eabafe3df23cb199481dcf7,5fe191adc5f99bc12bdddc92,2020-12-21_22h27.28.514,FlowerSimilarity_Experiment,2020.1.2,MacIntel,60,5fe17d4a51f3a9c1a60f9869,,,,,,,,,,,,,,,,,,,2,PF,,7,0.985,,,,,,,,,,,,,,,,,,,,,,,,,,,,,,,,,57,157,1,0,0,response1disk,8,100,2,4,1,0,0,rectangle,2,4,1,0,0,4,6,"[71,165,65,197,95,206,291,185,191,47,224,256,302,26,195,40,81,2,27,140]",2,4,1,0,0,0,99,99,52,1,,,,,,,,,,,,,,,,,,,,,,,
,,,,,,,,,,,,,,,,,,,,,,,,,,,,,,,,,,,,,,,,,,,5eabafe3df23cb199481dcf7,5fe191adc5f99bc12bdddc92,2020-12-21_22h27.28.514,FlowerSimilarity_Experiment,2020.1.2,MacIntel,60,5fe17d4a51f3a9c1a60f9869,,,,,,,,,,,,,,,,,,,9,PF,,7,0.866,,,,,,,,,,,,,,,,,,,,,,,,,,,,,,,,,78,180,1,0,0,response1disk,8,101,-10,6,1,0,0,rectangle,-10,6,1,0,0,4,7,"[71,165,65,197,95,206,291,185,191,47,224,256,302,26,195,40,81,2,27,140]",-10,6,1,0,0,0,100,100,67,1,,,,,,,,,,,,,,,,,,,,,,,
,,,,,,,,,,,,,,,,,,,,,,,,,,,,,,,,,,,,,,,,,,,5eabafe3df23cb199481dcf7,5fe191adc5f99bc12bdddc92,2020-12-21_22h27.28.514,FlowerSimilarity_Experiment,2020.1.2,MacIntel,60,5fe17d4a51f3a9c1a60f9869,,,,,,,,,,,,,,,,,,,9,FF,,3,2.436,,,,,,,,,,,,,,,,,,,,,,,,,,,,,,,,,-48,-105,1,0,0,response5disk,1,102,-14,1,1,0,0,rectangle,-14,1,1,0,0,4,7,"[71,165,65,197,95,206,291,185,191,47,224,256,302,26,195,40,81,2,27,140]",-14,1,1,0,0,0,101,101,111,1,,,,,,,,,,,,,,,,,,,,,,,
,,,,,,,,,,,,,,,,,,,,,,,,,,,,,,,,,,,,,,,,,,,5eabafe3df23cb199481dcf7,5fe191adc5f99bc12bdddc92,2020-12-21_22h27.28.514,FlowerSimilarity_Experiment,2020.1.2,MacIntel,60,5fe17d4a51f3a9c1a60f9869,,,,,,,,,,,,,,,,,,,5,FF,,7,1.602,,,,,,,,,,,,,,,,,,,,,,,,,,,,,,,,,82,185,1,0,0,response1disk,4,103,-23,-9,1,0,0,rectangle,-23,-9,1,0,0,4,1,"[71,165,65,197,95,206,291,185,191,47,224,256,302,26,195,40,81,2,27,140]",-23,-9,1,0,0,0,102,102,8,1,,,,,,,,,,,,,,,,,,,,,,,
,,,,,,,,,,,,,,,,,,,,,,,,,,,,,,,,,,,,,,,,,,,5eabafe3df23cb199481dcf7,5fe191adc5f99bc12bdddc92,2020-12-21_22h27.28.514,FlowerSimilarity_Experiment,2020.1.2,MacIntel,60,5fe17d4a51f3a9c1a60f9869,,,,,,,,,,,,,,,,,,,9,FF,,7,1.217,,,,,,,,,,,,,,,,,,,,,,,,,,,,,,,,,63,133,1,0,0,response1disk,3,104,3,2,1,0,0,rectangle,3,2,1,0,0,4,5,"[71,165,65,197,95,206,291,185,191,47,224,256,302,26,195,40,81,2,27,140]",3,2,1,0,0,0,103,103,141,1,,,,,,,,,,,,,,,,,,,,,,,
,,,,,,,,,,,,,,,,,,,,,,,,,,,,,,,,,,,,,,,,,,,5eabafe3df23cb199481dcf7,5fe191adc5f99bc12bdddc92,2020-12-21_22h27.28.514,FlowerSimilarity_Experiment,2020.1.2,MacIntel,60,5fe17d4a51f3a9c1a60f9869,,,,,,,,,,,,,,,,,,,6,PF,,7,0.887,,,,,,,,,,,,,,,,,,,,,,,,,,,,,,,,,56,125,1,0,0,response1disk,7,105,8,14,1,0,0,rectangle,8,14,1,0,0,4,4,"[71,165,65,197,95,206,291,185,191,47,224,256,302,26,195,40,81,2,27,140]",8,14,1,0,0,0,104,104,50,1,,,,,,,,,,,,,,,,,,,,,,,
,,,,,,,,,,,,,,,,,,,,,,,,,,,,,,,,,,,,,,,,,,,5eabafe3df23cb199481dcf7,5fe191adc5f99bc12bdddc92,2020-12-21_22h27.28.514,FlowerSimilarity_Experiment,2020.1.2,MacIntel,60,5fe17d4a51f3a9c1a60f9869,,,,,,,,,,,,,,,,,,,2,PF,,7,0.85,,,,,,,,,,,,,,,,,,,,,,,,,,,,,,,,,55,146,1,0,0,response1disk,1,106,-10,-17,1,0,0,rectangle,-10,-17,1,0,0,4,4,"[71,165,65,197,95,206,291,185,191,47,224,256,302,26,195,40,81,2,27,140]",-10,-17,1,0,0,0,105,105,9,1,,,,,,,,,,,,,,,,,,,,,,,
,,,,,,,,,,,,,,,,,,,,,,,,,,,,,,,,,,,,,,,,,,,5eabafe3df23cb199481dcf7,5fe191adc5f99bc12bdddc92,2020-12-21_22h27.28.514,FlowerSimilarity_Experiment,2020.1.2,MacIntel,60,5fe17d4a51f3a9c1a60f9869,,,,,,,,,,,,,,,,,,,1,PF,,7,2.369,,,,,,,,,,,,,,,,,,,,,,,,,,,,,,,,,33,110,1,0,0,response1disk,4,107,-6,1,1,0,0,rectangle,-6,1,1,0,0,4,2,"[71,165,65,197,95,206,291,185,191,47,224,256,302,26,195,40,81,2,27,140]",-6,1,1,0,0,0,106,106,139,1,,,,,,,,,,,,,,,,,,,,,,,
,,,,,,,,,,,,,,,,,,,,,,,,,,,,,,,,,,,,,,,,,,,5eabafe3df23cb199481dcf7,5fe191adc5f99bc12bdddc92,2020-12-21_22h27.28.514,FlowerSimilarity_Experiment,2020.1.2,MacIntel,60,5fe17d4a51f3a9c1a60f9869,,,,,,,,,,,,,,,,,,,2,FF,,4,1.617,,,,,,,,,,,,,,,,,,,,,,,,,,,,,,,,,46,-127,1,0,0,response3disk,4,108,6,-3,1,0,0,rectangle,6,-3,1,0,0,4,6,"[71,165,65,197,95,206,291,185,191,47,224,256,302,26,195,40,81,2,27,140]",6,-3,1,0,0,0,107,107,145,1,,,,,,,,,,,,,,,,,,,,,,,
,,,,,,,,,,,,,,,,,,,,,,,,,,,,,,,,,,,,,,,,,,,5eabafe3df23cb199481dcf7,5fe191adc5f99bc12bdddc92,2020-12-21_22h27.28.514,FlowerSimilarity_Experiment,2020.1.2,MacIntel,60,5fe17d4a51f3a9c1a60f9869,,,,,,,,,,,,,,,,,,,6,FF,,7,2.821,,,,,,,,,,,,,,,,,,,,,,,,,,,,,,,,,48,166,1,0,0,response1disk,2,109,-6,-13,1,0,0,rectangle,-6,-13,1,0,0,4,6,"[71,165,65,197,95,206,291,185,191,47,224,256,302,26,195,40,81,2,27,140]",-6,-13,1,0,0,0,108,108,112,1,,,,,,,,,,,,,,,,,,,,,,,
,,,,,,,,,,,,,,,,,,,,,,,,,,,,,,,,,,,,,,,,,,,5eabafe3df23cb199481dcf7,5fe191adc5f99bc12bdddc92,2020-12-21_22h27.28.514,FlowerSimilarity_Experiment,2020.1.2,MacIntel,60,5fe17d4a51f3a9c1a60f9869,,,,,,,,,,,,,,,,,,,5,FF,,7,1.302,,,,,,,,,,,,,,,,,,,,,,,,,,,,,,,,,38,131,1,0,0,response1disk,3,110,5,8,1,0,0,rectangle,5,8,1,0,0,4,6,"[71,165,65,197,95,206,291,185,191,47,224,256,302,26,195,40,81,2,27,140]",5,8,1,0,0,0,109,109,25,1,,,,,,,,,,,,,,,,,,,,,,,
,,,,,,,,,,,,,,,,,,,,,,,,,,,,,,,,,,,,,,,,,,,5eabafe3df23cb199481dcf7,5fe191adc5f99bc12bdddc92,2020-12-21_22h27.28.514,FlowerSimilarity_Experiment,2020.1.2,MacIntel,60,5fe17d4a51f3a9c1a60f9869,,,,,,,,,,,,,,,,,,,7,PF,,5,10.123,,,,,,,,,,,,,,,,,,,,,,,,,,,,,,,,,108,-52,1,0,0,response3disk,2,111,19,7,1,0,0,rectangle,19,7,1,0,0,4,1,"[71,165,65,197,95,206,291,185,191,47,224,256,302,26,195,40,81,2,27,140]",19,7,1,0,0,0,110,110,32,1,,,,,,,,,,,,,,,,,,,,,,,
,,,,,,,,,,,,,,,,,,,,,,,,,,,,,,,,,,,,,,,,,,,5eabafe3df23cb199481dcf7,5fe191adc5f99bc12bdddc92,2020-12-21_22h27.28.514,FlowerSimilarity_Experiment,2020.1.2,MacIntel,60,5fe17d4a51f3a9c1a60f9869,,,,,,,,,,,,,,,,,,,7,FF,,4,4.738,,,,,,,,,,,,,,,,,,,,,,,,,,,,,,,,,62,-135,1,0,0,response3disk,3,112,-5,5,1,0,0,rectangle,-5,5,1,0,0,4,4,"[71,165,65,197,95,206,291,185,191,47,224,256,302,26,195,40,81,2,27,140]",-5,5,1,0,0,0,111,111,73,1,,,,,,,,,,,,,,,,,,,,,,,
,,,,,,,,,,,,,,,,,,,,,,,,,,,,,,,,,,,,,,,,,,,5eabafe3df23cb199481dcf7,5fe191adc5f99bc12bdddc92,2020-12-21_22h27.28.514,FlowerSimilarity_Experiment,2020.1.2,MacIntel,60,5fe17d4a51f3a9c1a60f9869,,,,,,,,,,,,,,,,,,,1,PF,,7,1.418,,,,,,,,,,,,,,,,,,,,,,,,,,,,,,,,,59,145,1,0,0,response1disk,3,113,-11,-7,1,0,0,rectangle,-11,-7,1,0,0,4,5,"[71,165,65,197,95,206,291,185,191,47,224,256,302,26,195,40,81,2,27,140]",-11,-7,1,0,0,0,112,112,1,1,,,,,,,,,,,,,,,,,,,,,,,
,,,,,,,,,,,,,,,,,,,,,,,,,,,,,,,,,,,,,,,,,,,5eabafe3df23cb199481dcf7,5fe191adc5f99bc12bdddc92,2020-12-21_22h27.28.514,FlowerSimilarity_Experiment,2020.1.2,MacIntel,60,5fe17d4a51f3a9c1a60f9869,,,,,,,,,,,,,,,,,,,9,FF,,7,1.285,,,,,,,,,,,,,,,,,,,,,,,,,,,,,,,,,50,97,1,0,0,response1disk,7,114,-10,-16,1,0,0,rectangle,-10,-16,1,0,0,4,0,"[71,165,65,197,95,206,291,185,191,47,224,256,302,26,195,40,81,2,27,140]",-10,-16,1,0,0,0,113,113,100,1,,,,,,,,,,,,,,,,,,,,,,,
,,,,,,,,,,,,,,,,,,,,,,,,,,,,,,,,,,,,,,,,,,,5eabafe3df23cb199481dcf7,5fe191adc5f99bc12bdddc92,2020-12-21_22h27.28.514,FlowerSimilarity_Experiment,2020.1.2,MacIntel,60,5fe17d4a51f3a9c1a60f9869,,,,,,,,,,,,,,,,,,,1,FF,,7,1.835,,,,,,,,,,,,,,,,,,,,,,,,,,,,,,,,,67,143,1,0,0,response1disk,5,115,-3,1,1,0,0,rectangle,-3,1,1,0,0,4,6,"[71,165,65,197,95,206,291,185,191,47,224,256,302,26,195,40,81,2,27,140]",-3,1,1,0,0,0,114,114,82,1,,,,,,,,,,,,,,,,,,,,,,,
,,,,,,,,,,,,,,,,,,,,,,,,,,,,,,,,,,,,,,,,,,,5eabafe3df23cb199481dcf7,5fe191adc5f99bc12bdddc92,2020-12-21_22h27.28.514,FlowerSimilarity_Experiment,2020.1.2,MacIntel,60,5fe17d4a51f3a9c1a60f9869,,,,,,,,,,,,,,,,,,,8,FF,,5,3.452,,,,,,,,,,,,,,,,,,,,,,,,,,,,,,,,,134,-69,1,0,0,response3disk,9,116,-19,-2,1,0,0,rectangle,-19,-2,1,0,0,4,2,"[71,165,65,197,95,206,291,185,191,47,224,256,302,26,195,40,81,2,27,140]",-19,-2,1,0,0,0,115,115,105,1,,,,,,,,,,,,,,,,,,,,,,,
,,,,,,,,,,,,,,,,,,,,,,,,,,,,,,,,,,,,,,,,,,,5eabafe3df23cb199481dcf7,5fe191adc5f99bc12bdddc92,2020-12-21_22h27.28.514,FlowerSimilarity_Experiment,2020.1.2,MacIntel,60,5fe17d4a51f3a9c1a60f9869,,,,,,,,,,,,,,,,,,,6,PF,,0,1.634,,,,,,,,,,,,,,,,,,,,,,,,,,,,,,,,,-64,162,1,0,0,response7disk,9,117,-10,-2,1,0,0,rectangle,-10,-2,1,0,0,4,0,"[71,165,65,197,95,206,291,185,191,47,224,256,302,26,195,40,81,2,27,140]",-10,-2,1,0,0,0,116,116,45,1,,,,,,,,,,,,,,,,,,,,,,,
,,,,,,,,,,,,,,,,,,,,,,,,,,,,,,,,,,,,,,,,,,,5eabafe3df23cb199481dcf7,5fe191adc5f99bc12bdddc92,2020-12-21_22h27.28.514,FlowerSimilarity_Experiment,2020.1.2,MacIntel,60,5fe17d4a51f3a9c1a60f9869,,,,,,,,,,,,,,,,,,,4,PF,,7,1.252,,,,,,,,,,,,,,,,,,,,,,,,,,,,,,,,,57,139,1,0,0,response1disk,7,118,6,4,1,0,0,rectangle,6,4,1,0,0,4,6,"[71,165,65,197,95,206,291,185,191,47,224,256,302,26,195,40,81,2,27,140]",6,4,1,0,0,0,117,117,38,1,,,,,,,,,,,,,,,,,,,,,,,
,,,,,,,,,,,,,,,,,,,,,,,,,,,,,,,,,,,,,,,,,,,5eabafe3df23cb199481dcf7,5fe191adc5f99bc12bdddc92,2020-12-21_22h27.28.514,FlowerSimilarity_Experiment,2020.1.2,MacIntel,60,5fe17d4a51f3a9c1a60f9869,,,,,,,,,,,,,,,,,,,6,FF,,4,1.803,,,,,,,,,,,,,,,,,,,,,,,,,,,,,,,,,49,-110,1,0,0,response3disk,9,119,5,1,1,0,0,rectangle,5,1,1,0,0,4,6,"[71,165,65,197,95,206,291,185,191,47,224,256,302,26,195,40,81,2,27,140]",5,1,1,0,0,0,118,118,160,1,,,,,,,,,,,,,,,,,,,,,,,
,,,,,,,,,,,,,,,,,,,,,,,,,,,,,,,,,,,,,,,,,,,5eabafe3df23cb199481dcf7,5fe191adc5f99bc12bdddc92,2020-12-21_22h27.28.514,FlowerSimilarity_Experiment,2020.1.2,MacIntel,60,5fe17d4a51f3a9c1a60f9869,,,,,,,,,,,,,,,,,,,8,PF,,4,1.161,,,,,,,,,,,,,,,,,,,,,,,,,,,,,,,,,52,-114,1,0,0,response3disk,9,120,3,-1,1,0,0,rectangle,3,-1,1,0,0,4,2,"[71,165,65,197,95,206,291,185,191,47,224,256,302,26,195,40,81,2,27,140]",3,-1,1,0,0,0,119,119,42,1,,,,,,,,,,,,,,,,,,,,,,,
,,,,,,,,,,,,,,,,,,,,,,,,,,,,,,,,,,,,,,,,,,,5eabafe3df23cb199481dcf7,5fe191adc5f99bc12bdddc92,2020-12-21_22h27.28.514,FlowerSimilarity_Experiment,2020.1.2,MacIntel,60,5fe17d4a51f3a9c1a60f9869,,,,,,,,,,,,,,,,,,,5,PF,,7,1.902,,,,,,,,,,,,,,,,,,,,,,,,,,,,,,,,,62,134,1,0,0,response1disk,7,121,22,1,1,0,0,rectangle,22,1,1,0,0,4,4,"[71,165,65,197,95,206,291,185,191,47,224,256,302,26,195,40,81,2,27,140]",22,1,1,0,0,0,120,120,146,1,,,,,,,,,,,,,,,,,,,,,,,
,,,,,,,,,,,,,,,,,,,,,,,,,,,,,,,,,,,,,,,,,,,5eabafe3df23cb199481dcf7,5fe191adc5f99bc12bdddc92,2020-12-21_22h27.28.514,FlowerSimilarity_Experiment,2020.1.2,MacIntel,60,5fe17d4a51f3a9c1a60f9869,,,,,,,,,,,,,,,,,,,1,FF,,0,1.567,,,,,,,,,,,,,,,,,,,,,,,,,,,,,,,,,-73,145,1,0,0,response7disk,1,122,-15,1,1,0,0,rectangle,-15,1,1,0,0,4,2,"[71,165,65,197,95,206,291,185,191,47,224,256,302,26,195,40,81,2,27,140]",-15,1,1,0,0,0,121,121,151,1,,,,,,,,,,,,,,,,,,,,,,,
,,,,,,,,,,,,,,,,,,,,,,,,,,,,,,,,,,,,,,,,,,,5eabafe3df23cb199481dcf7,5fe191adc5f99bc12bdddc92,2020-12-21_22h27.28.514,FlowerSimilarity_Experiment,2020.1.2,MacIntel,60,5fe17d4a51f3a9c1a60f9869,,,,,,,,,,,,,,,,,,,9,PF,,2,1.851,,,,,,,,,,,,,,,,,,,,,,,,,,,,,,,,,-116,-60,1,0,0,response5disk,9,123,-11,2,1,0,0,rectangle,-11,2,1,0,0,4,7,"[71,165,65,197,95,206,291,185,191,47,224,256,302,26,195,40,81,2,27,140]",-11,2,1,0,0,0,122,122,106,1,,,,,,,,,,,,,,,,,,,,,,,
,,,,,,,,,,,,,,,,,,,,,,,,,,,,,,,,,,,,,,,,,,,5eabafe3df23cb199481dcf7,5fe191adc5f99bc12bdddc92,2020-12-21_22h27.28.514,FlowerSimilarity_Experiment,2020.1.2,MacIntel,60,5fe17d4a51f3a9c1a60f9869,,,,,,,,,,,,,,,,,,,5,PF,,4,2.853,,,,,,,,,,,,,,,,,,,,,,,,,,,,,,,,,30,-115,1,0,0,response3disk,8,124,-1,7,1,0,0,rectangle,-1,7,1,0,0,4,2,"[71,165,65,197,95,206,291,185,191,47,224,256,302,26,195,40,81,2,27,140]",-1,7,1,0,0,0,123,123,149,1,,,,,,,,,,,,,,,,,,,,,,,
,,,,,,,,,,,,,,,,,,,,,,,,,,,,,,,,,,,,,,,,,,,5eabafe3df23cb199481dcf7,5fe191adc5f99bc12bdddc92,2020-12-21_22h27.28.514,FlowerSimilarity_Experiment,2020.1.2,MacIntel,60,5fe17d4a51f3a9c1a60f9869,,,,,,,,,,,,,,,,,,,4,PF,,7,1.201,,,,,,,,,,,,,,,,,,,,,,,,,,,,,,,,,50,142,1,0,0,response1disk,1,125,12,5,1,0,0,rectangle,12,5,1,0,0,4,5,"[71,165,65,197,95,206,291,185,191,47,224,256,302,26,195,40,81,2,27,140]",12,5,1,0,0,0,124,124,115,1,,,,,,,,,,,,,,,,,,,,,,,
,,,,,,,,,,,,,,,,,,,,,,,,,,,,,,,,,,,,,,,,,,,5eabafe3df23cb199481dcf7,5fe191adc5f99bc12bdddc92,2020-12-21_22h27.28.514,FlowerSimilarity_Experiment,2020.1.2,MacIntel,60,5fe17d4a51f3a9c1a60f9869,,,,,,,,,,,,,,,,,,,8,PF,,6,1.285,,,,,,,,,,,,,,,,,,,,,,,,,,,,,,,,,119,61,1,0,0,response1disk,8,126,13,10,1,0,0,rectangle,13,10,1,0,0,4,3,"[71,165,65,197,95,206,291,185,191,47,224,256,302,26,195,40,81,2,27,140]",13,10,1,0,0,0,125,125,153,1,,,,,,,,,,,,,,,,,,,,,,,
,,,,,,,,,,,,,,,,,,,,,,,,,,,,,,,,,,,,,,,,,,,5eabafe3df23cb199481dcf7,5fe191adc5f99bc12bdddc92,2020-12-21_22h27.28.514,FlowerSimilarity_Experiment,2020.1.2,MacIntel,60,5fe17d4a51f3a9c1a60f9869,,,,,,,,,,,,,,,,,,,4,FF,,7,1.736,,,,,,,,,,,,,,,,,,,,,,,,,,,,,,,,,62,151,1,0,0,response1disk,7,127,13,22,1,0,0,rectangle,13,22,1,0,0,4,7,"[71,165,65,197,95,206,291,185,191,47,224,256,302,26,195,40,81,2,27,140]",13,22,1,0,0,0,126,126,87,1,,,,,,,,,,,,,,,,,,,,,,,
,,,,,,,,,,,,,,,,,,,,,,,,,,,,,,,,,,,,,,,,,,,5eabafe3df23cb199481dcf7,5fe191adc5f99bc12bdddc92,2020-12-21_22h27.28.514,FlowerSimilarity_Experiment,2020.1.2,MacIntel,60,5fe17d4a51f3a9c1a60f9869,,,,,,,,,,,,,,,,,,,9,FF,,4,1.853,,,,,,,,,,,,,,,,,,,,,,,,,,,,,,,,,56,-130,1,0,0,response3disk,5,128,-2,4,1,0,0,rectangle,-2,4,1,0,0,4,4,"[71,165,65,197,95,206,291,185,191,47,224,256,302,26,195,40,81,2,27,140]",-2,4,1,0,0,0,127,127,128,1,,,,,,,,,,,,,,,,,,,,,,,
,,,,,,,,,,,,,,,,,,,,,,,,,,,,,,,,,,,,,,,,,,,5eabafe3df23cb199481dcf7,5fe191adc5f99bc12bdddc92,2020-12-21_22h27.28.514,FlowerSimilarity_Experiment,2020.1.2,MacIntel,60,5fe17d4a51f3a9c1a60f9869,,,,,,,,,,,,,,,,,,,4,FF,,7,1.216,,,,,,,,,,,,,,,,,,,,,,,,,,,,,,,,,38,94,1,0,0,response1disk,5,129,0,8,1,0,0,rectangle,0,8,1,0,0,4,1,"[71,165,65,197,95,206,291,185,191,47,224,256,302,26,195,40,81,2,27,140]",0,8,1,0,0,0,128,128,116,1,,,,,,,,,,,,,,,,,,,,,,,
,,,,,,,,,,,,,,,,,,,,,,,,,,,,,,,,,,,,,,,,,,,5eabafe3df23cb199481dcf7,5fe191adc5f99bc12bdddc92,2020-12-21_22h27.28.514,FlowerSimilarity_Experiment,2020.1.2,MacIntel,60,5fe17d4a51f3a9c1a60f9869,,,,,,,,,,,,,,,,,,,4,PF,,7,1.035,,,,,,,,,,,,,,,,,,,,,,,,,,,,,,,,,73,143,1,0,0,response1disk,6,130,6,5,1,0,0,rectangle,6,5,1,0,0,4,1,"[71,165,65,197,95,206,291,185,191,47,224,256,302,26,195,40,81,2,27,140]",6,5,1,0,0,0,129,129,120,1,,,,,,,,,,,,,,,,,,,,,,,
,,,,,,,,,,,,,,,,,,,,,,,,,,,,,,,,,,,,,,,,,,,5eabafe3df23cb199481dcf7,5fe191adc5f99bc12bdddc92,2020-12-21_22h27.28.514,FlowerSimilarity_Experiment,2020.1.2,MacIntel,60,5fe17d4a51f3a9c1a60f9869,,,,,,,,,,,,,,,,,,,1,PF,,7,0.821,,,,,,,,,,,,,,,,,,,,,,,,,,,,,,,,,64,167,1,0,0,response1disk,8,131,-6,-2,1,0,0,rectangle,-6,-2,1,0,0,4,2,"[71,165,65,197,95,206,291,185,191,47,224,256,302,26,195,40,81,2,27,140]",-6,-2,1,0,0,0,130,130,65,1,,,,,,,,,,,,,,,,,,,,,,,
,,,,,,,,,,,,,,,,,,,,,,,,,,,,,,,,,,,,,,,,,,,5eabafe3df23cb199481dcf7,5fe191adc5f99bc12bdddc92,2020-12-21_22h27.28.514,FlowerSimilarity_Experiment,2020.1.2,MacIntel,60,5fe17d4a51f3a9c1a60f9869,,,,,,,,,,,,,,,,,,,8,FF,,4,2.736,,,,,,,,,,,,,,,,,,,,,,,,,,,,,,,,,90,-94,1,0,0,response3disk,2,132,-2,5,1,0,0,rectangle,-2,5,1,0,0,4,7,"[71,165,65,197,95,206,291,185,191,47,224,256,302,26,195,40,81,2,27,140]",-2,5,1,0,0,0,131,131,22,1,,,,,,,,,,,,,,,,,,,,,,,
,,,,,,,,,,,,,,,,,,,,,,,,,,,,,,,,,,,,,,,,,,,5eabafe3df23cb199481dcf7,5fe191adc5f99bc12bdddc92,2020-12-21_22h27.28.514,FlowerSimilarity_Experiment,2020.1.2,MacIntel,60,5fe17d4a51f3a9c1a60f9869,,,,,,,,,,,,,,,,,,,4,FF,,7,1.224,,,,,,,,,,,,,,,,,,,,,,,,,,,,,,,,,68,162,1,0,0,response1disk,9,133,5,5,1,0,0,rectangle,5,5,1,0,0,4,0,"[71,165,65,197,95,206,291,185,191,47,224,256,302,26,195,40,81,2,27,140]",5,5,1,0,0,0,132,132,90,1,,,,,,,,,,,,,,,,,,,,,,,
,,,,,,,,,,,,,,,,,,,,,,,,,,,,,,,,,,,,,,,,,,,5eabafe3df23cb199481dcf7,5fe191adc5f99bc12bdddc92,2020-12-21_22h27.28.514,FlowerSimilarity_Experiment,2020.1.2,MacIntel,60,5fe17d4a51f3a9c1a60f9869,,,,,,,,,,,,,,,,,,,3,FF,,0,1.551,,,,,,,,,,,,,,,,,,,,,,,,,,,,,,,,,-64,133,1,0,0,response7disk,7,134,-12,3,1,0,0,rectangle,-12,3,1,0,0,4,1,"[71,165,65,197,95,206,291,185,191,47,224,256,302,26,195,40,81,2,27,140]",-12,3,1,0,0,0,133,133,118,1,,,,,,,,,,,,,,,,,,,,,,,
,,,,,,,,,,,,,,,,,,,,,,,,,,,,,,,,,,,,,,,,,,,5eabafe3df23cb199481dcf7,5fe191adc5f99bc12bdddc92,2020-12-21_22h27.28.514,FlowerSimilarity_Experiment,2020.1.2,MacIntel,60,5fe17d4a51f3a9c1a60f9869,,,,,,,,,,,,,,,,,,,1,PF,,7,1.135,,,,,,,,,,,,,,,,,,,,,,,,,,,,,,,,,69,122,1,0,0,response1disk,6,135,9,12,1,0,0,rectangle,9,12,1,0,0,4,6,"[71,165,65,197,95,206,291,185,191,47,224,256,302,26,195,40,81,2,27,140]",9,12,1,0,0,0,134,134,144,1,,,,,,,,,,,,,,,,,,,,,,,
,,,,,,,,,,,,,,,,,,,,,,,,,,,,,,,,,,,,,,,,,,,5eabafe3df23cb199481dcf7,5fe191adc5f99bc12bdddc92,2020-12-21_22h27.28.514,FlowerSimilarity_Experiment,2020.1.2,MacIntel,60,5fe17d4a51f3a9c1a60f9869,,,,,,,,,,,,,,,,,,,1,PF,,7,1.052,,,,,,,,,,,,,,,,,,,,,,,,,,,,,,,,,58,142,1,0,0,response1disk,5,136,5,2,1,0,0,rectangle,5,2,1,0,0,4,2,"[71,165,65,197,95,206,291,185,191,47,224,256,302,26,195,40,81,2,27,140]",5,2,1,0,0,0,135,135,28,1,,,,,,,,,,,,,,,,,,,,,,,
,,,,,,,,,,,,,,,,,,,,,,,,,,,,,,,,,,,,,,,,,,,5eabafe3df23cb199481dcf7,5fe191adc5f99bc12bdddc92,2020-12-21_22h27.28.514,FlowerSimilarity_Experiment,2020.1.2,MacIntel,60,5fe17d4a51f3a9c1a60f9869,,,,,,,,,,,,,,,,,,,6,FF,,7,2.089,,,,,,,,,,,,,,,,,,,,,,,,,,,,,,,,,30,153,1,0,0,response1disk,4,137,2,10,1,0,0,rectangle,2,10,1,0,0,4,3,"[71,165,65,197,95,206,291,185,191,47,224,256,302,26,195,40,81,2,27,140]",2,10,1,0,0,0,136,136,56,1,,,,,,,,,,,,,,,,,,,,,,,
,,,,,,,,,,,,,,,,,,,,,,,,,,,,,,,,,,,,,,,,,,,5eabafe3df23cb199481dcf7,5fe191adc5f99bc12bdddc92,2020-12-21_22h27.28.514,FlowerSimilarity_Experiment,2020.1.2,MacIntel,60,5fe17d4a51f3a9c1a60f9869,,,,,,,,,,,,,,,,,,,3,PF,,6,1.836,,,,,,,,,,,,,,,,,,,,,,,,,,,,,,,,,147,70,1,0,0,response1disk,1,138,-6,-7,1,0,0,rectangle,-6,-7,1,0,0,4,4,"[71,165,65,197,95,206,291,185,191,47,224,256,302,26,195,40,81,2,27,140]",-6,-7,1,0,0,0,137,137,96,1,,,,,,,,,,,,,,,,,,,,,,,
,,,,,,,,,,,,,,,,,,,,,,,,,,,,,,,,,,,,,,,,,,,5eabafe3df23cb199481dcf7,5fe191adc5f99bc12bdddc92,2020-12-21_22h27.28.514,FlowerSimilarity_Experiment,2020.1.2,MacIntel,60,5fe17d4a51f3a9c1a60f9869,,,,,,,,,,,,,,,,,,,2,FF,,7,5.404,,,,,,,,,,,,,,,,,,,,,,,,,,,,,,,,,41,128,1,0,0,response1disk,1,139,1,-3,1,0,0,rectangle,1,-3,1,0,0,4,4,"[71,165,65,197,95,206,291,185,191,47,224,256,302,26,195,40,81,2,27,140]",1,-3,1,0,0,0,138,138,85,1,,,,,,,,,,,,,,,,,,,,,,,
,,,,,,,,,,,,,,,,,,,,,,,,,,,,,,,,,,,,,,,,,,,5eabafe3df23cb199481dcf7,5fe191adc5f99bc12bdddc92,2020-12-21_22h27.28.514,FlowerSimilarity_Experiment,2020.1.2,MacIntel,60,5fe17d4a51f3a9c1a60f9869,,,,,,,,,,,,,,,,,,,8,FF,,7,1.769,,,,,,,,,,,,,,,,,,,,,,,,,,,,,,,,,55,138,1,0,0,response1disk,7,140,7,9,1,0,0,rectangle,-136,70,1,0,0,1,1,"[71,165,65,197,95,206,291,185,191,47,224,256,302,26,195,40,81,2,27,140]",-22,6,1,0,0,0,139,139,86,1,response7disk_3,rectangle,,,,,,,,,,,,,,,,,,,,,
,,,,,,,,,,,,,,,,,,,,,,,,,,,,,,,,,,,,,,,,,,,5eabafe3df23cb199481dcf7,5fe191adc5f99bc12bdddc92,2020-12-21_22h27.28.514,FlowerSimilarity_Experiment,2020.1.2,MacIntel,60,5fe17d4a51f3a9c1a60f9869,,,,,,,,,,,,,,,,,,,8,FF,,7,1.286,,,,,,,,,,,,,,,,,,,,,,,,,,,,,,,,,49,128,1,0,0,response1disk,3,141,2,-21,1,0,0,rectangle,2,-21,1,0,0,1,7,"[71,165,65,197,95,206,291,185,191,47,224,256,302,26,195,40,81,2,27,140]",2,-21,1,0,0,0,140,140,154,1,,,,,,,,,,,,,,,,,,,,,,,
,,,,,,,,,,,,,,,,,,,,,,,,,,,,,,,,,,,,,,,,,,,5eabafe3df23cb199481dcf7,5fe191adc5f99bc12bdddc92,2020-12-21_22h27.28.514,FlowerSimilarity_Experiment,2020.1.2,MacIntel,60,5fe17d4a51f3a9c1a60f9869,,,,,,,,,,,,,,,,,,,3,FF,,7,1.103,,,,,,,,,,,,,,,,,,,,,,,,,,,,,,,,,61,136,1,0,0,response1disk,8,142,-2,0,1,0,0,rectangle,-2,0,1,0,0,1,2,"[71,165,65,197,95,206,291,185,191,47,224,256,302,26,195,40,81,2,27,140]",-2,0,1,0,0,0,141,141,44,1,,,,,,,,,,,,,,,,,,,,,,,
,,,,,,,,,,,,,,,,,,,,,,,,,,,,,,,,,,,,,,,,,,,5eabafe3df23cb199481dcf7,5fe191adc5f99bc12bdddc92,2020-12-21_22h27.28.514,FlowerSimilarity_Experiment,2020.1.2,MacIntel,60,5fe17d4a51f3a9c1a60f9869,,,,,,,,,,,,,,,,,,,1,PF,,7,0.917,,,,,,,,,,,,,,,,,,,,,,,,,,,,,,,,,57,132,1,0,0,response1disk,7,143,-6,4,1,0,0,rectangle,-6,4,1,0,0,1,3,"[71,165,65,197,95,206,291,185,191,47,224,256,302,26,195,40,81,2,27,140]",-6,4,1,0,0,0,142,142,150,1,,,,,,,,,,,,,,,,,,,,,,,
,,,,,,,,,,,,,,,,,,,,,,,,,,,,,,,,,,,,,,,,,,,5eabafe3df23cb199481dcf7,5fe191adc5f99bc12bdddc92,2020-12-21_22h27.28.514,FlowerSimilarity_Experiment,2020.1.2,MacIntel,60,5fe17d4a51f3a9c1a60f9869,,,,,,,,,,,,,,,,,,,6,PF,,7,2.82,,,,,,,,,,,,,,,,,,,,,,,,,,,,,,,,,56,124,1,0,0,response1disk,3,144,-2,8,1,0,0,rectangle,-2,8,1,0,0,1,3,"[71,165,65,197,95,206,291,185,191,47,224,256,302,26,195,40,81,2,27,140]",-2,8,1,0,0,0,143,143,26,1,,,,,,,,,,,,,,,,,,,,,,,
,,,,,,,,,,,,,,,,,,,,,,,,,,,,,,,,,,,,,,,,,,,5eabafe3df23cb199481dcf7,5fe191adc5f99bc12bdddc92,2020-12-21_22h27.28.514,FlowerSimilarity_Experiment,2020.1.2,MacIntel,60,5fe17d4a51f3a9c1a60f9869,,,,,,,,,,,,,,,,,,,8,PF,,5,2.319,,,,,,,,,,,,,,,,,,,,,,,,,,,,,,,,,139,-53,1,0,0,response3disk,2,145,27,-3,1,0,0,rectangle,27,-3,1,0,0,1,3,"[71,165,65,197,95,206,291,185,191,47,224,256,302,26,195,40,81,2,27,140]",27,-3,1,0,0,0,144,144,83,1,,,,,,,,,,,,,,,,,,,,,,,
,,,,,,,,,,,,,,,,,,,,,,,,,,,,,,,,,,,,,,,,,,,5eabafe3df23cb199481dcf7,5fe191adc5f99bc12bdddc92,2020-12-21_22h27.28.514,FlowerSimilarity_Experiment,2020.1.2,MacIntel,60,5fe17d4a51f3a9c1a60f9869,,,,,,,,,,,,,,,,,,,9,PF,,7,1.453,,,,,,,,,,,,,,,,,,,,,,,,,,,,,,,,,60,170,1,0,0,response1disk,5,146,-8,3,1,0,0,rectangle,-8,3,1,0,0,1,5,"[71,165,65,197,95,206,291,185,191,47,224,256,302,26,195,40,81,2,27,140]",-8,3,1,0,0,0,145,145,134,1,,,,,,,,,,,,,,,,,,,,,,,
,,,,,,,,,,,,,,,,,,,,,,,,,,,,,,,,,,,,,,,,,,,5eabafe3df23cb199481dcf7,5fe191adc5f99bc12bdddc92,2020-12-21_22h27.28.514,FlowerSimilarity_Experiment,2020.1.2,MacIntel,60,5fe17d4a51f3a9c1a60f9869,,,,,,,,,,,,,,,,,,,9,PF,,7,2.352,,,,,,,,,,,,,,,,,,,,,,,,,,,,,,,,,54,134,1,0,0,response1disk,4,147,-7,8,1,0,0,rectangle,-7,8,1,0,0,1,1,"[71,165,65,197,95,206,291,185,191,47,224,256,302,26,195,40,81,2,27,140]",-7,8,1,0,0,0,146,146,114,1,,,,,,,,,,,,,,,,,,,,,,,
,,,,,,,,,,,,,,,,,,,,,,,,,,,,,,,,,,,,,,,,,,,5eabafe3df23cb199481dcf7,5fe191adc5f99bc12bdddc92,2020-12-21_22h27.28.514,FlowerSimilarity_Experiment,2020.1.2,MacIntel,60,5fe17d4a51f3a9c1a60f9869,,,,,,,,,,,,,,,,,,,7,PF,,7,1.236,,,,,,,,,,,,,,,,,,,,,,,,,,,,,,,,,49,109,1,0,0,response1disk,8,148,6,10,1,0,0,rectangle,6,10,1,0,0,1,2,"[71,165,65,197,95,206,291,185,191,47,224,256,302,26,195,40,81,2,27,140]",6,10,1,0,0,0,147,147,140,1,,,,,,,,,,,,,,,,,,,,,,,
,,,,,,,,,,,,,,,,,,,,,,,,,,,,,,,,,,,,,,,,,,,5eabafe3df23cb199481dcf7,5fe191adc5f99bc12bdddc92,2020-12-21_22h27.28.514,FlowerSimilarity_Experiment,2020.1.2,MacIntel,60,5fe17d4a51f3a9c1a60f9869,,,,,,,,,,,,,,,,,,,6,FF,,5,2.22,,,,,,,,,,,,,,,,,,,,,,,,,,,,,,,,,114,-48,1,0,0,response3disk,1,149,4,1,1,0,0,rectangle,4,1,1,0,0,1,0,"[71,165,65,197,95,206,291,185,191,47,224,256,302,26,195,40,81,2,27,140]",4,1,1,0,0,0,148,148,5,1,,,,,,,,,,,,,,,,,,,,,,,
,,,,,,,,,,,,,,,,,,,,,,,,,,,,,,,,,,,,,,,,,,,5eabafe3df23cb199481dcf7,5fe191adc5f99bc12bdddc92,2020-12-21_22h27.28.514,FlowerSimilarity_Experiment,2020.1.2,MacIntel,60,5fe17d4a51f3a9c1a60f9869,,,,,,,,,,,,,,,,,,,8,FF,,2,2.634,,,,,,,,,,,,,,,,,,,,,,,,,,,,,,,,,-132,-59,1,0,0,response5disk,8,150,-13,1,1,0,0,rectangle,-13,1,1,0,0,1,2,"[71,165,65,197,95,206,291,185,191,47,224,256,302,26,195,40,81,2,27,140]",-13,1,1,0,0,0,149,149,48,1,,,,,,,,,,,,,,,,,,,,,,,
,,,,,,,,,,,,,,,,,,,,,,,,,,,,,,,,,,,,,,,,,,,5eabafe3df23cb199481dcf7,5fe191adc5f99bc12bdddc92,2020-12-21_22h27.28.514,FlowerSimilarity_Experiment,2020.1.2,MacIntel,60,5fe17d4a51f3a9c1a60f9869,,,,,,,,,,,,,,,,,,,3,PF,,7,1.434,,,,,,,,,,,,,,,,,,,,,,,,,,,,,,,,,69,150,1,0,0,response1disk,6,151,-4,-7,1,0,0,rectangle,-4,-7,1,0,0,1,6,"[71,165,65,197,95,206,291,185,191,47,224,256,302,26,195,40,81,2,27,140]",-4,-7,1,0,0,0,150,150,47,1,,,,,,,,,,,,,,,,,,,,,,,
,,,,,,,,,,,,,,,,,,,,,,,,,,,,,,,,,,,,,,,,,,,5eabafe3df23cb199481dcf7,5fe191adc5f99bc12bdddc92,2020-12-21_22h27.28.514,FlowerSimilarity_Experiment,2020.1.2,MacIntel,60,5fe17d4a51f3a9c1a60f9869,,,,,,,,,,,,,,,,,,,9,FF,,4,1.551,,,,,,,,,,,,,,,,,,,,,,,,,,,,,,,,,61,-97,1,0,0,response3disk,8,152,-10,-16,1,0,0,rectangle,-10,-16,1,0,0,1,3,"[71,165,65,197,95,206,291,185,191,47,224,256,302,26,195,40,81,2,27,140]",-10,-16,1,0,0,0,151,151,6,1,,,,,,,,,,,,,,,,,,,,,,,
,,,,,,,,,,,,,,,,,,,,,,,,,,,,,,,,,,,,,,,,,,,5eabafe3df23cb199481dcf7,5fe191adc5f99bc12bdddc92,2020-12-21_22h27.28.514,FlowerSimilarity_Experiment,2020.1.2,MacIntel,60,5fe17d4a51f3a9c1a60f9869,,,,,,,,,,,,,,,,,,,3,FF,,4,1.836,,,,,,,,,,,,,,,,,,,,,,,,,,,,,,,,,52,-104,1,0,0,response3disk,9,153,3,3,1,0,0,rectangle,3,3,1,0,0,1,4,"[71,165,65,197,95,206,291,185,191,47,224,256,302,26,195,40,81,2,27,140]",3,3,1,0,0,0,152,152,143,1,,,,,,,,,,,,,,,,,,,,,,,
,,,,,,,,,,,,,,,,,,,,,,,,,,,,,,,,,,,,,,,,,,,5eabafe3df23cb199481dcf7,5fe191adc5f99bc12bdddc92,2020-12-21_22h27.28.514,FlowerSimilarity_Experiment,2020.1.2,MacIntel,60,5fe17d4a51f3a9c1a60f9869,,,,,,,,,,,,,,,,,,,2,PF,,4,1.985,,,,,,,,,,,,,,,,,,,,,,,,,,,,,,,,,59,-123,1,0,0,response3disk,5,154,-8,3,1,0,0,rectangle,-8,3,1,0,0,1,2,"[71,165,65,197,95,206,291,185,191,47,224,256,302,26,195,40,81,2,27,140]",-8,3,1,0,0,0,153,153,147,1,,,,,,,,,,,,,,,,,,,,,,,
,,,,,,,,,,,,,,,,,,,,,,,,,,,,,,,,,,,,,,,,,,,5eabafe3df23cb199481dcf7,5fe191adc5f99bc12bdddc92,2020-12-21_22h27.28.514,FlowerSimilarity_Experiment,2020.1.2,MacIntel,60,5fe17d4a51f3a9c1a60f9869,,,,,,,,,,,,,,,,,,,5,FF,,5,2.102,,,,,,,,,,,,,,,,,,,,,,,,,,,,,,,,,118,-71,1,0,0,response3disk,7,155,19,-1,1,0,0,rectangle,19,-1,1,0,0,1,2,"[71,165,65,197,95,206,291,185,191,47,224,256,302,26,195,40,81,2,27,140]",19,-1,1,0,0,0,154,154,7,1,,,,,,,,,,,,,,,,,,,,,,,
,,,,,,,,,,,,,,,,,,,,,,,,,,,,,,,,,,,,,,,,,,,5eabafe3df23cb199481dcf7,5fe191adc5f99bc12bdddc92,2020-12-21_22h27.28.514,FlowerSimilarity_Experiment,2020.1.2,MacIntel,60,5fe17d4a51f3a9c1a60f9869,,,,,,,,,,,,,,,,,,,7,FF,,5,1.821,,,,,,,,,,,,,,,,,,,,,,,,,,,,,,,,,135,-73,1,0,0,response3disk,5,156,2,-1,1,0,0,rectangle,2,-1,1,0,0,1,4,"[71,165,65,197,95,206,291,185,191,47,224,256,302,26,195,40,81,2,27,140]",2,-1,1,0,0,0,155,155,156,1,,,,,,,,,,,,,,,,,,,,,,,
,,,,,,,,,,,,,,,,,,,,,,,,,,,,,,,,,,,,,,,,,,,5eabafe3df23cb199481dcf7,5fe191adc5f99bc12bdddc92,2020-12-21_22h27.28.514,FlowerSimilarity_Experiment,2020.1.2,MacIntel,60,5fe17d4a51f3a9c1a60f9869,,,,,,,,,,,,,,,,,,,5,PF,,5,1.651,,,,,,,,,,,,,,,,,,,,,,,,,,,,,,,,,110,-57,1,0,0,response3disk,2,157,8,-1,1,0,0,rectangle,8,-1,1,0,0,1,2,"[71,165,65,197,95,206,291,185,191,47,224,256,302,26,195,40,81,2,27,140]",8,-1,1,0,0,0,156,156,129,1,,,,,,,,,,,,,,,,,,,,,,,
,,,,,,,,,,,,,,,,,,,,,,,,,,,,,,,,,,,,,,,,,,,5eabafe3df23cb199481dcf7,5fe191adc5f99bc12bdddc92,2020-12-21_22h27.28.514,FlowerSimilarity_Experiment,2020.1.2,MacIntel,60,5fe17d4a51f3a9c1a60f9869,,,,,,,,,,,,,,,,,,,8,PF,,7,1.251,,,,,,,,,,,,,,,,,,,,,,,,,,,,,,,,,67,137,1,0,0,response1disk,3,158,-6,1,1,0,0,rectangle,-6,1,1,0,0,1,7,"[71,165,65,197,95,206,291,185,191,47,224,256,302,26,195,40,81,2,27,140]",-6,1,1,0,0,0,157,157,71,1,,,,,,,,,,,,,,,,,,,,,,,
,,,,,,,,,,,,,,,,,,,,,,,,,,,,,,,,,,,,,,,,,,,5eabafe3df23cb199481dcf7,5fe191adc5f99bc12bdddc92,2020-12-21_22h27.28.514,FlowerSimilarity_Experiment,2020.1.2,MacIntel,60,5fe17d4a51f3a9c1a60f9869,,,,,,,,,,,,,,,,,,,3,FF,,7,1.767,,,,,,,,,,,,,,,,,,,,,,,,,,,,,,,,,69,156,1,0,0,response1disk,2,159,-3,4,1,0,0,rectangle,-3,4,1,0,0,1,1,"[71,165,65,197,95,206,291,185,191,47,224,256,302,26,195,40,81,2,27,140]",-3,4,1,0,0,0,158,158,93,1,,,,,,,,,,,,,,,,,,,,,,,
,,,,,,,,,,,,,,,,,,,,,,,,,,,,,,,,,,,,,,,,,,,5eabafe3df23cb199481dcf7,5fe191adc5f99bc12bdddc92,2020-12-21_22h27.28.514,FlowerSimilarity_Experiment,2020.1.2,MacIntel,60,5fe17d4a51f3a9c1a60f9869,,,,,,,,,,,,,,,,,,,5,FF,,5,1.552,,,,,,,,,,,,,,,,,,,,,,,,,,,,,,,,,116,-70,1,0,0,response3disk,1,160,5,-2,1,0,0,rectangle,5,-2,1,0,0,1,2,"[71,165,65,197,95,206,291,185,191,47,224,256,302,26,195,40,81,2,27,140]",5,-2,1,0,0,0,159,159,131,1,,,,,,,,,,,,,,,,,,,,,,,
,,,,,,,,,,,,,,,,,,,,,,,,,,,,,,,,,,,,,,,,,,,5eabafe3df23cb199481dcf7,5fe191adc5f99bc12bdddc92,2020-12-21_22h27.28.514,FlowerSimilarity_Experiment,2020.1.2,MacIntel,60,5fe17d4a51f3a9c1a60f9869,,,,,,,,,,,,,,,,,,,5,PF,,7,2.384,,,,,,,,,,,,,,,,,,,,,,,,,,,,,,,,,41,154,1,0,0,response1disk,9,161,-3,-14,1,0,0,rectangle,-3,-14,1,0,0,1,6,"[71,165,65,197,95,206,291,185,191,47,224,256,302,26,195,40,81,2,27,140]",-3,-14,1,0,0,0,160,160,136,1,,,,,,,,,,,,,,,,,,,,,,,
,,,,,,,,,,,,,,,,,,,,,,,,,,,,,,,,,,,,,,,,,,,5eabafe3df23cb199481dcf7,5fe191adc5f99bc12bdddc92,2020-12-21_22h27.28.514,FlowerSimilarity_Experiment,2020.1.2,MacIntel,60,5fe17d4a51f3a9c1a60f9869,,,,,,,,,,,,,,,,,,,4,FF,,7,1.101,,,,,,,,,,,,,,,,,,,,,,,,,,,,,,,,,69,152,1,0,0,response1disk,6,162,-5,-5,1,0,0,rectangle,-5,-5,1,0,0,1,0,"[71,165,65,197,95,206,291,185,191,47,224,256,302,26,195,40,81,2,27,140]",-5,-5,1,0,0,0,161,161,122,1,,,,,,,,,,,,,,,,,,,,,,,
,,,,,,,,,,,,,,,,,,,,,,,,,,,,,,,,,,,,,,,,,,,5eabafe3df23cb199481dcf7,5fe191adc5f99bc12bdddc92,2020-12-21_22h27.28.514,FlowerSimilarity_Experiment,2020.1.2,MacIntel,60,5fe17d4a51f3a9c1a60f9869,,,,,,,,,,,,,,,,,,,,,,,,,,,,,,,,,,,,,,,,,,,,,,,,,,,,,,,,,,,,,,,,,,,,,,,,,,,,,,,,,,,,,,,,,,0,0,0,0,1,,,,,,,,,,,,,,,,
,,,,,,,,,,,,,,,,,,,,,,,,,,,,,,,,,,,,,,,,,,,5eabafe3df23cb199481dcf7,5fe191adc5f99bc12bdddc92,2020-12-21_22h27.28.514,FlowerSimilarity_Experiment,2020.1.2,MacIntel,60,5fe17d4a51f3a9c1a60f9869,,,,,,,,,,,,,,,,,,,6,PF,,2,1.618,,,,,,,,,,,,,,,,,,,,,,,,,,,,,,,,,-97,-44,1,0,0,response5disk,1,163,26,6,1,0,0,rectangle,26,6,1,0,0,1,6,"[71,165,65,197,95,206,291,185,191,47,224,256,302,26,195,40,81,2,27,140]",26,6,1,0,0,0,0,0,46,1,,,,,,,,,,,,,,,,,,,,,,,
,,,,,,,,,,,,,,,,,,,,,,,,,,,,,,,,,,,,,,,,,,,5eabafe3df23cb199481dcf7,5fe191adc5f99bc12bdddc92,2020-12-21_22h27.28.514,FlowerSimilarity_Experiment,2020.1.2,MacIntel,60,5fe17d4a51f3a9c1a60f9869,,,,,,,,,,,,,,,,,,,7,PF,,3,2.036,,,,,,,,,,,,,,,,,,,,,,,,,,,,,,,,,-54,-105,1,0,0,response5disk,4,164,0,2,1,0,0,rectangle,0,2,1,0,0,1,6,"[71,165,65,197,95,206,291,185,191,47,224,256,302,26,195,40,81,2,27,140]",0,2,1,0,0,0,1,1,43,1,,,,,,,,,,,,,,,,,,,,,,,
,,,,,,,,,,,,,,,,,,,,,,,,,,,,,,,,,,,,,,,,,,,5eabafe3df23cb199481dcf7,5fe191adc5f99bc12bdddc92,2020-12-21_22h27.28.514,FlowerSimilarity_Experiment,2020.1.2,MacIntel,60,5fe17d4a51f3a9c1a60f9869,,,,,,,,,,,,,,,,,,,6,PF,,7,1.367,,,,,,,,,,,,,,,,,,,,,,,,,,,,,,,,,66,160,1,0,0,response1disk,4,165,-3,6,1,0,0,rectangle,-72,-136,1,0,0,3,3,"[71,165,65,197,95,206,291,185,191,47,224,256,302,26,195,40,81,2,27,140]",-10,-2,1,0,0,0,2,2,33,1,response5disk_3,rectangle,,,,,,,,,,,,,,,,,,,,,
,,,,,,,,,,,,,,,,,,,,,,,,,,,,,,,,,,,,,,,,,,,5eabafe3df23cb199481dcf7,5fe191adc5f99bc12bdddc92,2020-12-21_22h27.28.514,FlowerSimilarity_Experiment,2020.1.2,MacIntel,60,5fe17d4a51f3a9c1a60f9869,,,,,,,,,,,,,,,,,,,6,FF,,5,3.747,,,,,,,,,,,,,,,,,,,,,,,,,,,,,,,,,130,-47,1,0,0,response3disk,8,166,-13,3,1,0,0,rectangle,-13,3,1,0,0,3,0,"[71,165,65,197,95,206,291,185,191,47,224,256,302,26,195,40,81,2,27,140]",-13,3,1,0,0,0,3,3,133,1,,,,,,,,,,,,,,,,,,,,,,,
,,,,,,,,,,,,,,,,,,,,,,,,,,,,,,,,,,,,,,,,,,,5eabafe3df23cb199481dcf7,5fe191adc5f99bc12bdddc92,2020-12-21_22h27.28.514,FlowerSimilarity_Experiment,2020.1.2,MacIntel,60,5fe17d4a51f3a9c1a60f9869,,,,,,,,,,,,,,,,,,,9,PF,,3,1.351,,,,,,,,,,,,,,,,,,,,,,,,,,,,,,,,,-62,-144,1,0,0,response5disk,1,167,-13,5,1,0,0,rectangle,-13,5,1,0,0,3,3,"[71,165,65,197,95,206,291,185,191,47,224,256,302,26,195,40,81,2,27,140]",-13,5,1,0,0,0,4,4,74,1,,,,,,,,,,,,,,,,,,,,,,,
,,,,,,,,,,,,,,,,,,,,,,,,,,,,,,,,,,,,,,,,,,,5eabafe3df23cb199481dcf7,5fe191adc5f99bc12bdddc92,2020-12-21_22h27.28.514,FlowerSimilarity_Experiment,2020.1.2,MacIntel,60,5fe17d4a51f3a9c1a60f9869,,,,,,,,,,,,,,,,,,,6,PF,,5,2.586,,,,,,,,,,,,,,,,,,,,,,,,,,,,,,,,,132,-59,1,0,0,response3disk,2,168,10,16,1,0,0,rectangle,10,16,1,0,0,3,0,"[71,165,65,197,95,206,291,185,191,47,224,256,302,26,195,40,81,2,27,140]",10,16,1,0,0,0,5,5,130,1,,,,,,,,,,,,,,,,,,,,,,,
,,,,,,,,,,,,,,,,,,,,,,,,,,,,,,,,,,,,,,,,,,,5eabafe3df23cb199481dcf7,5fe191adc5f99bc12bdddc92,2020-12-21_22h27.28.514,FlowerSimilarity_Experiment,2020.1.2,MacIntel,60,5fe17d4a51f3a9c1a60f9869,,,,,,,,,,,,,,,,,,,5,FF,,1,2.023,,,,,,,,,,,,,,,,,,,,,,,,,,,,,,,,,-117,56,1,0,0,response7disk,5,169,-20,9,1,0,0,rectangle,-20,9,1,0,0,3,0,"[71,165,65,197,95,206,291,185,191,47,224,256,302,26,195,40,81,2,27,140]",-20,9,1,0,0,0,6,6,19,1,,,,,,,,,,,,,,,,,,,,,,,
,,,,,,,,,,,,,,,,,,,,,,,,,,,,,,,,,,,,,,,,,,,5eabafe3df23cb199481dcf7,5fe191adc5f99bc12bdddc92,2020-12-21_22h27.28.514,FlowerSimilarity_Experiment,2020.1.2,MacIntel,60,5fe17d4a51f3a9c1a60f9869,,,,,,,,,,,,,,,,,,,3,FF,,7,1.235,,,,,,,,,,,,,,,,,,,,,,,,,,,,,,,,,51,143,1,0,0,response1disk,6,170,0,-20,1,0,0,rectangle,0,-20,1,0,0,3,7,"[71,165,65,197,95,206,291,185,191,47,224,256,302,26,195,40,81,2,27,140]",0,-20,1,0,0,0,7,7,95,1,,,,,,,,,,,,,,,,,,,,,,,
,,,,,,,,,,,,,,,,,,,,,,,,,,,,,,,,,,,,,,,,,,,5eabafe3df23cb199481dcf7,5fe191adc5f99bc12bdddc92,2020-12-21_22h27.28.514,FlowerSimilarity_Experiment,2020.1.2,MacIntel,60,5fe17d4a51f3a9c1a60f9869,,,,,,,,,,,,,,,,,,,9,FF,,4,2.871,,,,,,,,,,,,,,,,,,,,,,,,,,,,,,,,,56,-103,1,0,0,response3disk,6,171,-4,4,1,0,0,rectangle,-4,4,1,0,0,3,1,"[71,165,65,197,95,206,291,185,191,47,224,256,302,26,195,40,81,2,27,140]",-4,4,1,0,0,0,8,8,117,1,,,,,,,,,,,,,,,,,,,,,,,
,,,,,,,,,,,,,,,,,,,,,,,,,,,,,,,,,,,,,,,,,,,5eabafe3df23cb199481dcf7,5fe191adc5f99bc12bdddc92,2020-12-21_22h27.28.514,FlowerSimilarity_Experiment,2020.1.2,MacIntel,60,5fe17d4a51f3a9c1a60f9869,,,,,,,,,,,,,,,,,,,7,PF,,6,1.919,,,,,,,,,,,,,,,,,,,,,,,,,,,,,,,,,137,55,1,0,0,response1disk,5,172,0,-5,1,0,0,rectangle,0,-5,1,0,0,3,5,"[71,165,65,197,95,206,291,185,191,47,224,256,302,26,195,40,81,2,27,140]",0,-5,1,0,0,0,9,9,92,1,,,,,,,,,,,,,,,,,,,,,,,
,,,,,,,,,,,,,,,,,,,,,,,,,,,,,,,,,,,,,,,,,,,5eabafe3df23cb199481dcf7,5fe191adc5f99bc12bdddc92,2020-12-21_22h27.28.514,FlowerSimilarity_Experiment,2020.1.2,MacIntel,60,5fe17d4a51f3a9c1a60f9869,,,,,,,,,,,,,,,,,,,5,FF,,7,1.173,,,,,,,,,,,,,,,,,,,,,,,,,,,,,,,,,73,148,1,0,0,response1disk,6,173,0,-1,1,0,0,rectangle,0,-1,1,0,0,3,1,"[71,165,65,197,95,206,291,185,191,47,224,256,302,26,195,40,81,2,27,140]",0,-1,1,0,0,0,10,10,12,1,,,,,,,,,,,,,,,,,,,,,,,
,,,,,,,,,,,,,,,,,,,,,,,,,,,,,,,,,,,,,,,,,,,5eabafe3df23cb199481dcf7,5fe191adc5f99bc12bdddc92,2020-12-21_22h27.28.514,FlowerSimilarity_Experiment,2020.1.2,MacIntel,60,5fe17d4a51f3a9c1a60f9869,,,,,,,,,,,,,,,,,,,2,PF,,7,0.95,,,,,,,,,,,,,,,,,,,,,,,,,,,,,,,,,57,135,1,0,0,response1disk,9,174,-7,10,1,0,0,rectangle,-7,10,1,0,0,3,6,"[71,165,65,197,95,206,291,185,191,47,224,256,302,26,195,40,81,2,27,140]",-7,10,1,0,0,0,11,11,39,1,,,,,,,,,,,,,,,,,,,,,,,
,,,,,,,,,,,,,,,,,,,,,,,,,,,,,,,,,,,,,,,,,,,5eabafe3df23cb199481dcf7,5fe191adc5f99bc12bdddc92,2020-12-21_22h27.28.514,FlowerSimilarity_Experiment,2020.1.2,MacIntel,60,5fe17d4a51f3a9c1a60f9869,,,,,,,,,,,,,,,,,,,2,PF,,7,0.955,,,,,,,,,,,,,,,,,,,,,,,,,,,,,,,,,47,141,1,0,0,response1disk,6,175,-9,-11,1,0,0,rectangle,-9,-11,1,0,0,3,1,"[71,165,65,197,95,206,291,185,191,47,224,256,302,26,195,40,81,2,27,140]",-9,-11,1,0,0,0,12,12,113,1,,,,,,,,,,,,,,,,,,,,,,,
,,,,,,,,,,,,,,,,,,,,,,,,,,,,,,,,,,,,,,,,,,,5eabafe3df23cb199481dcf7,5fe191adc5f99bc12bdddc92,2020-12-21_22h27.28.514,FlowerSimilarity_Experiment,2020.1.2,MacIntel,60,5fe17d4a51f3a9c1a60f9869,,,,,,,,,,,,,,,,,,,3,PF,,0,1.569,,,,,,,,,,,,,,,,,,,,,,,,,,,,,,,,,-69,136,1,0,0,response7disk,7,176,-8,0,1,0,0,rectangle,-8,0,1,0,0,3,4,"[71,165,65,197,95,206,291,185,191,47,224,256,302,26,195,40,81,2,27,140]",-8,0,1,0,0,0,13,13,41,1,,,,,,,,,,,,,,,,,,,,,,,
,,,,,,,,,,,,,,,,,,,,,,,,,,,,,,,,,,,,,,,,,,,5eabafe3df23cb199481dcf7,5fe191adc5f99bc12bdddc92,2020-12-21_22h27.28.514,FlowerSimilarity_Experiment,2020.1.2,MacIntel,60,5fe17d4a51f3a9c1a60f9869,,,,,,,,,,,,,,,,,,,6,FF,,7,1.167,,,,,,,,,,,,,,,,,,,,,,,,,,,,,,,,,63,151,1,0,0,response1disk,5,177,2,11,1,0,0,rectangle,2,11,1,0,0,3,1,"[71,165,65,197,95,206,291,185,191,47,224,256,302,26,195,40,81,2,27,140]",2,11,1,0,0,0,14,14,126,1,,,,,,,,,,,,,,,,,,,,,,,
,,,,,,,,,,,,,,,,,,,,,,,,,,,,,,,,,,,,,,,,,,,5eabafe3df23cb199481dcf7,5fe191adc5f99bc12bdddc92,2020-12-21_22h27.28.514,FlowerSimilarity_Experiment,2020.1.2,MacIntel,60,5fe17d4a51f3a9c1a60f9869,,,,,,,,,,,,,,,,,,,5,FF,,6,2.82,,,,,,,,,,,,,,,,,,,,,,,,,,,,,,,,,158,56,1,0,0,response1disk,9,178,-15,-3,1,0,0,rectangle,-15,-3,1,0,0,3,5,"[71,165,65,197,95,206,291,185,191,47,224,256,302,26,195,40,81,2,27,140]",-15,-3,1,0,0,0,15,15,61,1,,,,,,,,,,,,,,,,,,,,,,,
,,,,,,,,,,,,,,,,,,,,,,,,,,,,,,,,,,,,,,,,,,,5eabafe3df23cb199481dcf7,5fe191adc5f99bc12bdddc92,2020-12-21_22h27.28.514,FlowerSimilarity_Experiment,2020.1.2,MacIntel,60,5fe17d4a51f3a9c1a60f9869,,,,,,,,,,,,,,,,,,,6,FF,,0,1.285,,,,,,,,,,,,,,,,,,,,,,,,,,,,,,,,,-70,137,1,0,0,response7disk,6,179,6,-5,1,0,0,rectangle,6,-5,1,0,0,3,4,"[71,165,65,197,95,206,291,185,191,47,224,256,302,26,195,40,81,2,27,140]",6,-5,1,0,0,0,16,16,91,1,,,,,,,,,,,,,,,,,,,,,,,
,,,,,,,,,,,,,,,,,,,,,,,,,,,,,,,,,,,,,,,,,,,5eabafe3df23cb199481dcf7,5fe191adc5f99bc12bdddc92,2020-12-21_22h27.28.514,FlowerSimilarity_Experiment,2020.1.2,MacIntel,60,5fe17d4a51f3a9c1a60f9869,,,,,,,,,,,,,,,,,,,1,FF,,2,1.797,,,,,,,,,,,,,,,,,,,,,,,,,,,,,,,,,-114,-63,1,0,0,response5disk,2,180,11,-11,1,0,0,rectangle,11,-11,1,0,0,3,3,"[71,165,65,197,95,206,291,185,191,47,224,256,302,26,195,40,81,2,27,140]",11,-11,1,0,0,0,17,17,2,1,,,,,,,,,,,,,,,,,,,,,,,
,,,,,,,,,,,,,,,,,,,,,,,,,,,,,,,,,,,,,,,,,,,5eabafe3df23cb199481dcf7,5fe191adc5f99bc12bdddc92,2020-12-21_22h27.28.514,FlowerSimilarity_Experiment,2020.1.2,MacIntel,60,5fe17d4a51f3a9c1a60f9869,,,,,,,,,,,,,,,,,,,7,FF,,3,1.901,,,,,,,,,,,,,,,,,,,,,,,,,,,,,,,,,-81,-146,1,0,0,response5disk,1,181,-29,-23,1,0,0,rectangle,-29,-23,1,0,0,3,0,"[71,165,65,197,95,206,291,185,191,47,224,256,302,26,195,40,81,2,27,140]",-29,-23,1,0,0,0,18,18,132,1,,,,,,,,,,,,,,,,,,,,,,,
,,,,,,,,,,,,,,,,,,,,,,,,,,,,,,,,,,,,,,,,,,,5eabafe3df23cb199481dcf7,5fe191adc5f99bc12bdddc92,2020-12-21_22h27.28.514,FlowerSimilarity_Experiment,2020.1.2,MacIntel,60,5fe17d4a51f3a9c1a60f9869,,,,,,,,,,,,,,,,,,,1,PF,,0,1.2,,,,,,,,,,,,,,,,,,,,,,,,,,,,,,,,,-63,144,1,0,0,response7disk,1,182,-14,6,1,0,0,rectangle,-14,6,1,0,0,3,3,"[71,165,65,197,95,206,291,185,191,47,224,256,302,26,195,40,81,2,27,140]",-14,6,1,0,0,0,19,19,76,1,,,,,,,,,,,,,,,,,,,,,,,
,,,,,,,,,,,,,,,,,,,,,,,,,,,,,,,,,,,,,,,,,,,5eabafe3df23cb199481dcf7,5fe191adc5f99bc12bdddc92,2020-12-21_22h27.28.514,FlowerSimilarity_Experiment,2020.1.2,MacIntel,60,5fe17d4a51f3a9c1a60f9869,,,,,,,,,,,,,,,,,,,2,PF,,7,1.786,,,,,,,,,,,,,,,,,,,,,,,,,,,,,,,,,55,145,1,0,0,response1disk,7,183,0,8,1,0,0,rectangle,0,8,1,0,0,3,5,"[71,165,65,197,95,206,291,185,191,47,224,256,302,26,195,40,81,2,27,140]",0,8,1,0,0,0,20,20,107,1,,,,,,,,,,,,,,,,,,,,,,,
,,,,,,,,,,,,,,,,,,,,,,,,,,,,,,,,,,,,,,,,,,,5eabafe3df23cb199481dcf7,5fe191adc5f99bc12bdddc92,2020-12-21_22h27.28.514,FlowerSimilarity_Experiment,2020.1.2,MacIntel,60,5fe17d4a51f3a9c1a60f9869,,,,,,,,,,,,,,,,,,,3,FF,,0,1.218,,,,,,,,,,,,,,,,,,,,,,,,,,,,,,,,,-63,158,1,0,0,response7disk,3,184,0,-10,1,0,0,rectangle,0,-10,1,0,0,3,6,"[71,165,65,197,95,206,291,185,191,47,224,256,302,26,195,40,81,2,27,140]",0,-10,1,0,0,0,21,21,68,1,,,,,,,,,,,,,,,,,,,,,,,
,,,,,,,,,,,,,,,,,,,,,,,,,,,,,,,,,,,,,,,,,,,5eabafe3df23cb199481dcf7,5fe191adc5f99bc12bdddc92,2020-12-21_22h27.28.514,FlowerSimilarity_Experiment,2020.1.2,MacIntel,60,5fe17d4a51f3a9c1a60f9869,,,,,,,,,,,,,,,,,,,1,FF,,3,1.834,,,,,,,,,,,,,,,,,,,,,,,,,,,,,,,,,-66,-124,1,0,0,response5disk,9,185,-26,7,1,0,0,rectangle,161,69,1,0,0,6,6,"[71,165,65,197,95,206,291,185,191,47,224,256,302,26,195,40,81,2,27,140]",-1,-6,1,0,0,0,22,22,123,1,response1disk_3,rectangle,,,,,,,,,,,,,,,,,,,,,
,,,,,,,,,,,,,,,,,,,,,,,,,,,,,,,,,,,,,,,,,,,5eabafe3df23cb199481dcf7,5fe191adc5f99bc12bdddc92,2020-12-21_22h27.28.514,FlowerSimilarity_Experiment,2020.1.2,MacIntel,60,5fe17d4a51f3a9c1a60f9869,,,,,,,,,,,,,,,,,,,8,PF,,5,2.368,,,,,,,,,,,,,,,,,,,,,,,,,,,,,,,,,137,-51,1,0,0,response3disk,1,186,-6,0,1,0,0,rectangle,-6,0,1,0,0,6,6,"[71,165,65,197,95,206,291,185,191,47,224,256,302,26,195,40,81,2,27,140]",-6,0,1,0,0,0,23,23,57,1,,,,,,,,,,,,,,,,,,,,,,,
,,,,,,,,,,,,,,,,,,,,,,,,,,,,,,,,,,,,,,,,,,,5eabafe3df23cb199481dcf7,5fe191adc5f99bc12bdddc92,2020-12-21_22h27.28.514,FlowerSimilarity_Experiment,2020.1.2,MacIntel,60,5fe17d4a51f3a9c1a60f9869,,,,,,,,,,,,,,,,,,,4,PF,,2,1.722,,,,,,,,,,,,,,,,,,,,,,,,,,,,,,,,,-94,-40,1,0,0,response5disk,4,187,-19,-2,1,0,0,rectangle,-19,-2,1,0,0,6,0,"[71,165,65,197,95,206,291,185,191,47,224,256,302,26,195,40,81,2,27,140]",-19,-2,1,0,0,0,24,24,70,1,,,,,,,,,,,,,,,,,,,,,,,
,,,,,,,,,,,,,,,,,,,,,,,,,,,,,,,,,,,,,,,,,,,5eabafe3df23cb199481dcf7,5fe191adc5f99bc12bdddc92,2020-12-21_22h27.28.514,FlowerSimilarity_Experiment,2020.1.2,MacIntel,60,5fe17d4a51f3a9c1a60f9869,,,,,,,,,,,,,,,,,,,6,PF,,7,1.152,,,,,,,,,,,,,,,,,,,,,,,,,,,,,,,,,70,137,1,0,0,response1disk,5,188,3,-2,1,0,0,rectangle,3,-2,1,0,0,6,7,"[71,165,65,197,95,206,291,185,191,47,224,256,302,26,195,40,81,2,27,140]",3,-2,1,0,0,0,25,25,59,1,,,,,,,,,,,,,,,,,,,,,,,
,,,,,,,,,,,,,,,,,,,,,,,,,,,,,,,,,,,,,,,,,,,5eabafe3df23cb199481dcf7,5fe191adc5f99bc12bdddc92,2020-12-21_22h27.28.514,FlowerSimilarity_Experiment,2020.1.2,MacIntel,60,5fe17d4a51f3a9c1a60f9869,,,,,,,,,,,,,,,,,,,7,PF,,6,1.537,,,,,,,,,,,,,,,,,,,,,,,,,,,,,,,,,158,46,1,0,0,response1disk,1,189,-3,-6,1,0,0,rectangle,-3,-6,1,0,0,6,2,"[71,165,65,197,95,206,291,185,191,47,224,256,302,26,195,40,81,2,27,140]",-3,-6,1,0,0,0,26,26,53,1,,,,,,,,,,,,,,,,,,,,,,,
,,,,,,,,,,,,,,,,,,,,,,,,,,,,,,,,,,,,,,,,,,,5eabafe3df23cb199481dcf7,5fe191adc5f99bc12bdddc92,2020-12-21_22h27.28.514,FlowerSimilarity_Experiment,2020.1.2,MacIntel,60,5fe17d4a51f3a9c1a60f9869,,,,,,,,,,,,,,,,,,,7,FF,,1,2.069,,,,,,,,,,,,,,,,,,,,,,,,,,,,,,,,,-147,77,1,0,0,response7disk,7,190,-23,-5,1,0,0,rectangle,-23,-5,1,0,0,6,7,"[71,165,65,197,95,206,291,185,191,47,224,256,302,26,195,40,81,2,27,140]",-23,-5,1,0,0,0,27,27,34,1,,,,,,,,,,,,,,,,,,,,,,,
,,,,,,,,,,,,,,,,,,,,,,,,,,,,,,,,,,,,,,,,,,,5eabafe3df23cb199481dcf7,5fe191adc5f99bc12bdddc92,2020-12-21_22h27.28.514,FlowerSimilarity_Experiment,2020.1.2,MacIntel,60,5fe17d4a51f3a9c1a60f9869,,,,,,,,,,,,,,,,,,,8,PF,,7,1.599,,,,,,,,,,,,,,,,,,,,,,,,,,,,,,,,,56,130,1,0,0,response1disk,7,191,-8,6,1,0,0,rectangle,-65,170,1,0,0,0,0,"[71,165,65,197,95,206,291,185,191,47,224,256,302,26,195,40,81,2,27,140]",-15,14,1,0,0,0,28,28,23,1,response7disk_3,rectangle,,,,,,,,,,,,,,,,,,,,,
,,,,,,,,,,,,,,,,,,,,,,,,,,,,,,,,,,,,,,,,,,,5eabafe3df23cb199481dcf7,5fe191adc5f99bc12bdddc92,2020-12-21_22h27.28.514,FlowerSimilarity_Experiment,2020.1.2,MacIntel,60,5fe17d4a51f3a9c1a60f9869,,,,,,,,,,,,,,,,,,,9,FF,,0,1.202,,,,,,,,,,,,,,,,,,,,,,,,,,,,,,,,,-63,147,1,0,0,response7disk,9,192,3,-6,1,0,0,rectangle,3,-6,1,0,0,0,4,"[71,165,65,197,95,206,291,185,191,47,224,256,302,26,195,40,81,2,27,140]",3,-6,1,0,0,0,29,29,17,1,,,,,,,,,,,,,,,,,,,,,,,
,,,,,,,,,,,,,,,,,,,,,,,,,,,,,,,,,,,,,,,,,,,5eabafe3df23cb199481dcf7,5fe191adc5f99bc12bdddc92,2020-12-21_22h27.28.514,FlowerSimilarity_Experiment,2020.1.2,MacIntel,60,5fe17d4a51f3a9c1a60f9869,,,,,,,,,,,,,,,,,,,1,FF,,7,1.318,,,,,,,,,,,,,,,,,,,,,,,,,,,,,,,,,64,134,1,0,0,response1disk,7,193,5,-1,1,0,0,rectangle,5,-1,1,0,0,0,0,"[71,165,65,197,95,206,291,185,191,47,224,256,302,26,195,40,81,2,27,140]",5,-1,1,0,0,0,30,30,137,1,,,,,,,,,,,,,,,,,,,,,,,
,,,,,,,,,,,,,,,,,,,,,,,,,,,,,,,,,,,,,,,,,,,5eabafe3df23cb199481dcf7,5fe191adc5f99bc12bdddc92,2020-12-21_22h27.28.514,FlowerSimilarity_Experiment,2020.1.2,MacIntel,60,5fe17d4a51f3a9c1a60f9869,,,,,,,,,,,,,,,,,,,5,PF,,7,1.402,,,,,,,,,,,,,,,,,,,,,,,,,,,,,,,,,59,156,1,0,0,response1disk,6,194,-13,5,1,0,0,rectangle,-13,5,1,0,0,0,5,"[71,165,65,197,95,206,291,185,191,47,224,256,302,26,195,40,81,2,27,140]",-13,5,1,0,0,0,31,31,103,1,,,,,,,,,,,,,,,,,,,,,,,
,,,,,,,,,,,,,,,,,,,,,,,,,,,,,,,,,,,,,,,,,,,5eabafe3df23cb199481dcf7,5fe191adc5f99bc12bdddc92,2020-12-21_22h27.28.514,FlowerSimilarity_Experiment,2020.1.2,MacIntel,60,5fe17d4a51f3a9c1a60f9869,,,,,,,,,,,,,,,,,,,3,FF,,7,0.884,,,,,,,,,,,,,,,,,,,,,,,,,,,,,,,,,73,181,1,0,0,response1disk,4,195,-3,15,1,0,0,rectangle,67,168,1,0,0,7,7,"[71,165,65,197,95,206,291,185,191,47,224,256,302,26,195,40,81,2,27,140]",-5,10,1,0,0,0,32,32,110,1,response1disk_3,rectangle,,,,,,,,,,,,,,,,,,,,,
,,,,,,,,,,,,,,,,,,,,,,,,,,,,,,,,,,,,,,,,,,,5eabafe3df23cb199481dcf7,5fe191adc5f99bc12bdddc92,2020-12-21_22h27.28.514,FlowerSimilarity_Experiment,2020.1.2,MacIntel,60,5fe17d4a51f3a9c1a60f9869,,,,,,,,,,,,,,,,,,,2,PF,,7,2.502,,,,,,,,,,,,,,,,,,,,,,,,,,,,,,,,,64,162,1,0,0,response1disk,3,196,-6,1,1,0,0,rectangle,-6,1,1,0,0,7,3,"[71,165,65,197,95,206,291,185,191,47,224,256,302,26,195,40,81,2,27,140]",-6,1,1,0,0,0,33,33,69,1,,,,,,,,,,,,,,,,,,,,,,,
,,,,,,,,,,,,,,,,,,,,,,,,,,,,,,,,,,,,,,,,,,,5eabafe3df23cb199481dcf7,5fe191adc5f99bc12bdddc92,2020-12-21_22h27.28.514,FlowerSimilarity_Experiment,2020.1.2,MacIntel,60,5fe17d4a51f3a9c1a60f9869,,,,,,,,,,,,,,,,,,,4,PF,,7,0.985,,,,,,,,,,,,,,,,,,,,,,,,,,,,,,,,,63,163,1,0,0,response1disk,2,197,-7,-4,1,0,0,rectangle,-153,-52,1,0,0,7,2,"[71,165,65,197,95,206,291,185,191,47,224,256,302,26,195,40,81,2,27,140]",-7,3,1,0,0,0,34,34,108,1,response5disk_3,rectangle,,,,,,,,,,,,,,,,,,,,,
,,,,,,,,,,,,,,,,,,,,,,,,,,,,,,,,,,,,,,,,,,,5eabafe3df23cb199481dcf7,5fe191adc5f99bc12bdddc92,2020-12-21_22h27.28.514,FlowerSimilarity_Experiment,2020.1.2,MacIntel,60,5fe17d4a51f3a9c1a60f9869,,,,,,,,,,,,,,,,,,,7,FF,,7,1.103,,,,,,,,,,,,,,,,,,,,,,,,,,,,,,,,,66,131,1,0,0,response1disk,4,198,-6,4,1,0,0,rectangle,-6,4,1,0,0,7,6,"[71,165,65,197,95,206,291,185,191,47,224,256,302,26,195,40,81,2,27,140]",-6,4,1,0,0,0,35,35,158,1,,,,,,,,,,,,,,,,,,,,,,,
,,,,,,,,,,,,,,,,,,,,,,,,,,,,,,,,,,,,,,,,,,,5eabafe3df23cb199481dcf7,5fe191adc5f99bc12bdddc92,2020-12-21_22h27.28.514,FlowerSimilarity_Experiment,2020.1.2,MacIntel,60,5fe17d4a51f3a9c1a60f9869,,,,,,,,,,,,,,,,,,,8,FF,,7,0.851,,,,,,,,,,,,,,,,,,,,,,,,,,,,,,,,,71,139,1,0,0,response1disk,4,199,2,4,1,0,0,rectangle,2,4,1,0,0,7,0,"[71,165,65,197,95,206,291,185,191,47,224,256,302,26,195,40,81,2,27,140]",2,4,1,0,0,0,36,36,88,1,,,,,,,,,,,,,,,,,,,,,,,
,,,,,,,,,,,,,,,,,,,,,,,,,,,,,,,,,,,,,,,,,,,5eabafe3df23cb199481dcf7,5fe191adc5f99bc12bdddc92,2020-12-21_22h27.28.514,FlowerSimilarity_Experiment,2020.1.2,MacIntel,60,5fe17d4a51f3a9c1a60f9869,,,,,,,,,,,,,,,,,,,5,FF,,7,1.136,,,,,,,,,,,,,,,,,,,,,,,,,,,,,,,,,66,130,1,0,0,response1disk,8,200,-4,-3,1,0,0,rectangle,-4,-3,1,0,0,7,1,"[71,165,65,197,95,206,291,185,191,47,224,256,302,26,195,40,81,2,27,140]",-4,-3,1,0,0,0,37,37,16,1,,,,,,,,,,,,,,,,,,,,,,,
,,,,,,,,,,,,,,,,,,,,,,,,,,,,,,,,,,,,,,,,,,,5eabafe3df23cb199481dcf7,5fe191adc5f99bc12bdddc92,2020-12-21_22h27.28.514,FlowerSimilarity_Experiment,2020.1.2,MacIntel,60,5fe17d4a51f3a9c1a60f9869,,,,,,,,,,,,,,,,,,,7,PF,,2,1.468,,,,,,,,,,,,,,,,,,,,,,,,,,,,,,,,,-119,-68,1,0,0,response5disk,7,201,2,7,1,0,0,rectangle,2,7,1,0,0,7,4,"[71,165,65,197,95,206,291,185,191,47,224,256,302,26,195,40,81,2,27,140]",2,7,1,0,0,0,38,38,51,1,,,,,,,,,,,,,,,,,,,,,,,
,,,,,,,,,,,,,,,,,,,,,,,,,,,,,,,,,,,,,,,,,,,5eabafe3df23cb199481dcf7,5fe191adc5f99bc12bdddc92,2020-12-21_22h27.28.514,FlowerSimilarity_Experiment,2020.1.2,MacIntel,60,5fe17d4a51f3a9c1a60f9869,,,,,,,,,,,,,,,,,,,1,PF,,3,1.535,,,,,,,,,,,,,,,,,,,,,,,,,,,,,,,,,-58,-91,1,0,0,response5disk,9,202,-26,0,1,0,0,rectangle,-26,0,1,0,0,7,0,"[71,165,65,197,95,206,291,185,191,47,224,256,302,26,195,40,81,2,27,140]",-26,0,1,0,0,0,39,39,15,1,,,,,,,,,,,,,,,,,,,,,,,
,,,,,,,,,,,,,,,,,,,,,,,,,,,,,,,,,,,,,,,,,,,5eabafe3df23cb199481dcf7,5fe191adc5f99bc12bdddc92,2020-12-21_22h27.28.514,FlowerSimilarity_Experiment,2020.1.2,MacIntel,60,5fe17d4a51f3a9c1a60f9869,,,,,,,,,,,,,,,,,,,8,PF,,3,1.484,,,,,,,,,,,,,,,,,,,,,,,,,,,,,,,,,-72,-127,1,0,0,response5disk,5,203,-34,9,1,0,0,rectangle,-34,9,1,0,0,7,0,"[71,165,65,197,95,206,291,185,191,47,224,256,302,26,195,40,81,2,27,140]",-34,9,1,0,0,0,40,40,98,1,,,,,,,,,,,,,,,,,,,,,,,
,,,,,,,,,,,,,,,,,,,,,,,,,,,,,,,,,,,,,,,,,,,5eabafe3df23cb199481dcf7,5fe191adc5f99bc12bdddc92,2020-12-21_22h27.28.514,FlowerSimilarity_Experiment,2020.1.2,MacIntel,60,5fe17d4a51f3a9c1a60f9869,,,,,,,,,,,,,,,,,,,4,FF,,7,1.463,,,,,,,,,,,,,,,,,,,,,,,,,,,,,,,,,49,135,1,0,0,response1disk,1,204,5,16,1,0,0,rectangle,5,16,1,0,0,7,1,"[71,165,65,197,95,206,291,185,191,47,224,256,302,26,195,40,81,2,27,140]",5,16,1,0,0,0,41,41,102,1,,,,,,,,,,,,,,,,,,,,,,,
,,,,,,,,,,,,,,,,,,,,,,,,,,,,,,,,,,,,,,,,,,,5eabafe3df23cb199481dcf7,5fe191adc5f99bc12bdddc92,2020-12-21_22h27.28.514,FlowerSimilarity_Experiment,2020.1.2,MacIntel,60,5fe17d4a51f3a9c1a60f9869,,,,,,,,,,,,,,,,,,,6,PF,,7,1.002,,,,,,,,,,,,,,,,,,,,,,,,,,,,,,,,,65,158,1,0,0,response1disk,8,205,5,11,1,0,0,rectangle,5,11,1,0,0,7,2,"[71,165,65,197,95,206,291,185,191,47,224,256,302,26,195,40,81,2,27,140]",5,11,1,0,0,0,42,42,64,1,,,,,,,,,,,,,,,,,,,,,,,
,,,,,,,,,,,,,,,,,,,,,,,,,,,,,,,,,,,,,,,,,,,5eabafe3df23cb199481dcf7,5fe191adc5f99bc12bdddc92,2020-12-21_22h27.28.514,FlowerSimilarity_Experiment,2020.1.2,MacIntel,60,5fe17d4a51f3a9c1a60f9869,,,,,,,,,,,,,,,,,,,5,PF,,7,1.051,,,,,,,,,,,,,,,,,,,,,,,,,,,,,,,,,44,136,1,0,0,response1disk,4,206,13,18,1,0,0,rectangle,-66,167,1,0,0,0,0,"[71,165,65,197,95,206,291,185,191,47,224,256,302,26,195,40,81,2,27,140]",-11,11,1,0,0,0,43,43,54,1,response7disk_3,rectangle,,,,,,,,,,,,,,,,,,,,,
