key_resp.keys,key_resp.rt,key_resp_16.keys,key_resp_16.rt,key_resp_2.keys,key_resp_2.rt,X Scale,ratio_pxpermm,screen_size_x,screen_size_y,testsize,key_resp_3.keys,key_resp_3.rt,key_resp_4.keys,key_resp_4.rt,line_size,key_resp_5.keys,key_resp_5.rt,key_resp_6.keys,key_resp_6.rt,key_resp_8.keys,key_resp_8.rt,key_resp_7.keys,key_resp_7.rt,key_resp_12.keys,key_resp_12.rt,key_resp_11.keys,key_resp_11.rt,key_resp_18.keys,key_resp_18.rt,key_resp_21.keys,key_resp_21.rt,key_resp_13.keys,key_resp_13.rt,key_resp_19.keys,key_resp_19.rt,ballposx,viewer_distance,trials.thisRepN,trials.thisTrialN,trials.thisN,trials.thisIndex,trials.ran,participant,session,date,expName,psychopyVersion,OS,frameRate,study_id,viewerdistancecm,DVA_to_distance,radius_F,radius_P,r_F,R_P,key_resp_20.keys,key_resp_20.rt,key_resp_14.keys,key_resp_14.rt,key_resp_15.keys,key_resp_15.rt,key_resp_17.keys,key_resp_17.rt,key_resp_9.keys,key_resp_9.rt,key_resp_10.keys,key_resp_10.rt,Flower1,Ecc,Flower_2,similarity,response_time,mouse_5.x,mouse_5.y,mouse_5.leftButton,mouse_5.midButton,mouse_5.rightButton,mouse_5.clicked_name,mouse_10.x,mouse_10.y,mouse_10.leftButton,mouse_10.midButton,mouse_10.rightButton,mouse_10.clicked_name,mouse_7.x,mouse_7.y,mouse_7.leftButton,mouse_7.midButton,mouse_7.rightButton,catchnumberprac,mouse_6.x,mouse_6.y,mouse_6.leftButton,mouse_6.midButton,mouse_6.rightButton,duringprac.thisRepN,duringprac.thisTrialN,duringprac.thisN,duringprac.thisIndex,duringprac.ran,mouse_7.clicked_name,catchprac,mouse_6.clicked_name,key_resp_22.keys,key_resp_22.rt,mouse.x,mouse.y,mouse.leftButton,mouse.midButton,mouse.rightButton,mouse.clicked_name,Flower2,trialnumber,mouse_2.x,mouse_2.y,mouse_2.leftButton,mouse_2.midButton,mouse_2.rightButton,mouse_2.clicked_name,mouse_3.x,mouse_3.y,mouse_3.leftButton,mouse_3.midButton,mouse_3.rightButton,catchresponse,catchnumber,catchtrialorder,mouse_11.x,mouse_11.y,mouse_11.leftButton,mouse_11.midButton,mouse_11.rightButton,trials_2.thisRepN,trials_2.thisTrialN,trials_2.thisN,trials_2.thisIndex,trials_2.ran,mouse_3.clicked_name,mouse_11.clicked_name,trials_3.thisRepN,trials_3.thisTrialN,trials_3.thisN,trials_3.thisIndex,trials_3.ran,answer1,rt1,answer2,rt2,answer3,rt3,answer4,rt4,answer5,rt5,answer6,rt6,answer8,rt8,answer7,rt7
space,1.987365,space,23.59255,space,8.671525,44.4,4.44,307.6576577,172.972973,1366,space,32.08734,space,16.65985,88.8,space,25.591295,space,8.45007,space,2.63118,space,7.9287,space,8.39791,space,24.810815,space,12.142225,space,15.01578,space,33.911135,return,18.2336,-196.704,697.1288444,0,0,0,0,1,5ec1f52f74d69c62f8207c23,5fe192c0c39215c3d6ca4c47,2020-12-22_00h32.00.757,FlowerSimilarity_Experiment,2020.1.2,Win32,60,5fe17d4a51f3a9c1a60f9869,,,,,,,,,,,,,,,,,,,,,,,,,,,,,,,,,,,,,,,,,,,,,,,,,,,,,,,,,,,,,,,,,,,,,,,,,,,,,,,,,,,,,,,,,,,,,,,,,,,,,,,,,,,,,,,
,,,,,,,,,,,,,,,,,,,,,,,,,,,,,,,,,,return,6.53988,-198.753,699.0510747,1,0,1,0,1,5ec1f52f74d69c62f8207c23,5fe192c0c39215c3d6ca4c47,2020-12-22_00h32.00.757,FlowerSimilarity_Experiment,2020.1.2,Win32,60,5fe17d4a51f3a9c1a60f9869,,,,,,,,,,,,,,,,,,,,,,,,,,,,,,,,,,,,,,,,,,,,,,,,,,,,,,,,,,,,,,,,,,,,,,,,,,,,,,,,,,,,,,,,,,,,,,,,,,,,,,,,,,,,,,,
,,,,,,,,,,,,,,,,,,,,,,,,,,,,,,,,,,return,6.52045,-192.606,693.2843839,2,0,2,0,1,5ec1f52f74d69c62f8207c23,5fe192c0c39215c3d6ca4c47,2020-12-22_00h32.00.757,FlowerSimilarity_Experiment,2020.1.2,Win32,60,5fe17d4a51f3a9c1a60f9869,,,,,,,,,,,,,,,,,,,,,,,,,,,,,,,,,,,,,,,,,,,,,,,,,,,,,,,,,,,,,,,,,,,,,,,,,,,,,,,,,,,,,,,,,,,,,,,,,,,,,,,,,,,,,,,
,,,,,,,,,,,,,,,,,,,,,,,,,,,,,,,,,,return,6.559085,-213.096,712.5066866,3,0,3,0,1,5ec1f52f74d69c62f8207c23,5fe192c0c39215c3d6ca4c47,2020-12-22_00h32.00.757,FlowerSimilarity_Experiment,2020.1.2,Win32,60,5fe17d4a51f3a9c1a60f9869,,,,,,,,,,,,,,,,,,,,,,,,,,,,,,,,,,,,,,,,,,,,,,,,,,,,,,,,,,,,,,,,,,,,,,,,,,,,,,,,,,,,,,,,,,,,,,,,,,,,,,,,,,,,,,,
,,,,,,,,,,,,,,,,,,,,,,,,,,,,,,,,,,return,6.5858,-206.949,706.7399958,4,0,4,0,1,5ec1f52f74d69c62f8207c23,5fe192c0c39215c3d6ca4c47,2020-12-22_00h32.00.757,FlowerSimilarity_Experiment,2020.1.2,Win32,60,5fe17d4a51f3a9c1a60f9869,,,,,,,,,,,,,,,,,,,,,,,,,,,,,,,,,,,,,,,,,,,,,,,,,,,,,,,,,,,,,,,,,,,,,,,,,,,,,,,,,,,,,,,,,,,,,,,,,,,,,,,,,,,,,,,
,,,,,,,,,,,,,,,,,,,,,,,,,,,,,,,,,,,,,,,,,,,5ec1f52f74d69c62f8207c23,5fe192c0c39215c3d6ca4c47,2020-12-22_00h32.00.757,FlowerSimilarity_Experiment,2020.1.2,Win32,60,5fe17d4a51f3a9c1a60f9869,70,12.21854108,81.37548359,542.5032239,54.25032239,244.1264508,space,7.348285,space,21.16555,space,11.706345,space,26.17802,space,2.28131,space,12.25565,1,PF,9,0,16.52396,-24,46,1,0,0,response7disk_5,-12,2,1,0,0,rectangle_8,-12,2,1,0,0,7,-12,2,1,0,0,0,0,0,4,1,,,,,,,,,,,,,,,,,,,,,,,,,,,,,,,,,,,,,,,,,,,,,,,,,,,,,,,,,,,,
,,,,,,,,,,,,,,,,,,,,,,,,,,,,,,,,,,,,,,,,,,,5ec1f52f74d69c62f8207c23,5fe192c0c39215c3d6ca4c47,2020-12-22_00h32.00.757,FlowerSimilarity_Experiment,2020.1.2,Win32,60,5fe17d4a51f3a9c1a60f9869,,,,,,,,,,,,,,,,,,,1,FF,7,7,4.19008,36,82,1,0,0,response1disk_5,-4,0,1,0,0,rectangle_8,-4,0,1,0,0,7,-4,0,1,0,0,0,1,1,0,1,,,,,,,,,,,,,,,,,,,,,,,,,,,,,,,,,,,,,,,,,,,,,,,,,,,,,,,,,,,,
,,,,,,,,,,,,,,,,,,,,,,,,,,,,,,,,,,,,,,,,,,,5ec1f52f74d69c62f8207c23,5fe192c0c39215c3d6ca4c47,2020-12-22_00h32.00.757,FlowerSimilarity_Experiment,2020.1.2,Win32,60,5fe17d4a51f3a9c1a60f9869,,,,,,,,,,,,,,,,,,,3,PF,2,4,8.609515,42,-99,1,0,0,response3disk_5,-3,1,1,0,0,rectangle_8,-3,1,1,0,0,7,-3,1,1,0,0,0,2,2,2,1,,,,,,,,,,,,,,,,,,,,,,,,,,,,,,,,,,,,,,,,,,,,,,,,,,,,,,,,,,,,
,,,,,,,,,,,,,,,,,,,,,,,,,,,,,,,,,,,,,,,,,,,5ec1f52f74d69c62f8207c23,5fe192c0c39215c3d6ca4c47,2020-12-22_00h32.00.757,FlowerSimilarity_Experiment,2020.1.2,Win32,60,5fe17d4a51f3a9c1a60f9869,,,,,,,,,,,,,,,,,,,3,FF,1,6,3.167265,85,33,1,0,0,response1disk_5,13,-4,1,0,0,rectangle_8,13,-4,1,0,0,7,13,-4,1,0,0,0,3,3,3,1,,,,,,,,,,,,,,,,,,,,,,,,,,,,,,,,,,,,,,,,,,,,,,,,,,,,,,,,,,,,
,,,,,,,,,,,,,,,,,,,,,,,,,,,,,,,,,,,,,,,,,,,5ec1f52f74d69c62f8207c23,5fe192c0c39215c3d6ca4c47,2020-12-22_00h32.00.757,FlowerSimilarity_Experiment,2020.1.2,Win32,60,5fe17d4a51f3a9c1a60f9869,,,,,,,,,,,,,,,,,,,3,PF,1,5,8.68709,80,-36,1,0,0,response3disk_5,24,-2,1,0,0,rectangle_8,35,104,1,0,0,7,-2,-3,1,0,0,0,4,4,1,1,response1disk_7,7,rectangle_4,,,,,,,,,,,,,,,,,,,,,,,,,,,,,,,,,,,,,,,,,,,,,,,,,,,,,,,,,
,,,,,,,,,,,,,,,,,,,,,,,,,,,,,,,,,,,,,,,,,,,5ec1f52f74d69c62f8207c23,5fe192c0c39215c3d6ca4c47,2020-12-22_00h32.00.757,FlowerSimilarity_Experiment,2020.1.2,Win32,60,5fe17d4a51f3a9c1a60f9869,,,,,,,,,,,,,,,,,,,9,FF,8,6,5.743275,104,37,1,0,0,response1disk_5,1,0,1,0,0,rectangle_8,1,0,1,0,0,7,1,0,1,0,0,0,5,5,5,1,,,,,,,,,,,,,,,,,,,,,,,,,,,,,,,,,,,,,,,,,,,,,,,,,,,,,,,,,,,,
,,,,,,,,,,,,,,,,,,,,,,,,,,,,,,,,,,,,,,,,,,,5ec1f52f74d69c62f8207c23,5fe192c0c39215c3d6ca4c47,2020-12-22_00h32.00.757,FlowerSimilarity_Experiment,2020.1.2,Win32,60,5fe17d4a51f3a9c1a60f9869,,,,,,,,,,,,,,,,,,,4,PF,1,7,3.654435,41,94,1,0,0,response1disk_5,11,5,1,0,0,rectangle_8,11,5,1,0,0,7,11,5,1,0,0,0,6,6,6,1,,,,,,,,,,,,,,,,,,,,,,,,,,,,,,,,,,,,,,,,,,,,,,,,,,,,,,,,,,,,
,,,,,,,,,,,,,,,,,,,,,,,,,,,,,,,,,,,,,,,,,,,5ec1f52f74d69c62f8207c23,5fe192c0c39215c3d6ca4c47,2020-12-22_00h32.00.757,FlowerSimilarity_Experiment,2020.1.2,Win32,60,5fe17d4a51f3a9c1a60f9869,,,,,,,,,,,,,,,,,,,3,PF,,3,4.478885,,,,,,,,,,,,,,,,,,,,,,,,,,,,,,,,space,4.30598,-37,-105,1,0,0,response5disk,8,1,-9,6,1,0,0,rectangle,-9,6,1,0,0,,7,"[64,218,207,272,205,126,320,229,107,265,246,185,167,299,206,271,65,150,96,86]",-9,6,1,0,0,0,0,0,3,1,,,,,,,,,,,,,,,,,,,,,,,
,,,,,,,,,,,,,,,,,,,,,,,,,,,,,,,,,,,,,,,,,,,5ec1f52f74d69c62f8207c23,5fe192c0c39215c3d6ca4c47,2020-12-22_00h32.00.757,FlowerSimilarity_Experiment,2020.1.2,Win32,60,5fe17d4a51f3a9c1a60f9869,,,,,,,,,,,,,,,,,,,3,PF,,5,5.32414,,,,,,,,,,,,,,,,,,,,,,,,,,,,,,,,,,85,-39,1,0,0,response3disk,6,2,8,-7,1,0,0,rectangle,8,-7,1,0,0,,2,"[64,218,207,272,205,126,320,229,107,265,246,185,167,299,206,271,65,150,96,86]",8,-7,1,0,0,0,1,1,47,1,,,,,,,,,,,,,,,,,,,,,,,
,,,,,,,,,,,,,,,,,,,,,,,,,,,,,,,,,,,,,,,,,,,5ec1f52f74d69c62f8207c23,5fe192c0c39215c3d6ca4c47,2020-12-22_00h32.00.757,FlowerSimilarity_Experiment,2020.1.2,Win32,60,5fe17d4a51f3a9c1a60f9869,,,,,,,,,,,,,,,,,,,9,PF,,6,3.49988,,,,,,,,,,,,,,,,,,,,,,,,,,,,,,,,,,105,42,1,0,0,response1disk,8,3,14,9,1,0,0,rectangle,14,9,1,0,0,,7,"[64,218,207,272,205,126,320,229,107,265,246,185,167,299,206,271,65,150,96,86]",14,9,1,0,0,0,2,2,67,1,,,,,,,,,,,,,,,,,,,,,,,
,,,,,,,,,,,,,,,,,,,,,,,,,,,,,,,,,,,,,,,,,,,5ec1f52f74d69c62f8207c23,5fe192c0c39215c3d6ca4c47,2020-12-22_00h32.00.757,FlowerSimilarity_Experiment,2020.1.2,Win32,60,5fe17d4a51f3a9c1a60f9869,,,,,,,,,,,,,,,,,,,7,PF,,1,5.887205,,,,,,,,,,,,,,,,,,,,,,,,,,,,,,,,,,-86,36,1,0,0,response7disk,3,4,3,-2,1,0,0,rectangle,3,-2,1,0,0,,1,"[64,218,207,272,205,126,320,229,107,265,246,185,167,299,206,271,65,150,96,86]",3,-2,1,0,0,0,3,3,81,1,,,,,,,,,,,,,,,,,,,,,,,
,,,,,,,,,,,,,,,,,,,,,,,,,,,,,,,,,,,,,,,,,,,5ec1f52f74d69c62f8207c23,5fe192c0c39215c3d6ca4c47,2020-12-22_00h32.00.757,FlowerSimilarity_Experiment,2020.1.2,Win32,60,5fe17d4a51f3a9c1a60f9869,,,,,,,,,,,,,,,,,,,5,PF,,2,5.92319,,,,,,,,,,,,,,,,,,,,,,,,,,,,,,,,,,-86,-37,1,0,0,response5disk,5,5,-5,1,1,0,0,rectangle,-5,1,1,0,0,,3,"[64,218,207,272,205,126,320,229,107,265,246,185,167,299,206,271,65,150,96,86]",-5,1,1,0,0,0,4,4,94,1,,,,,,,,,,,,,,,,,,,,,,,
,,,,,,,,,,,,,,,,,,,,,,,,,,,,,,,,,,,,,,,,,,,5ec1f52f74d69c62f8207c23,5fe192c0c39215c3d6ca4c47,2020-12-22_00h32.00.757,FlowerSimilarity_Experiment,2020.1.2,Win32,60,5fe17d4a51f3a9c1a60f9869,,,,,,,,,,,,,,,,,,,3,FF,,5,4.25299,,,,,,,,,,,,,,,,,,,,,,,,,,,,,,,,,,78,-37,1,0,0,response3disk,7,6,-6,-3,1,0,0,rectangle,-6,-3,1,0,0,,3,"[64,218,207,272,205,126,320,229,107,265,246,185,167,299,206,271,65,150,96,86]",-6,-3,1,0,0,0,5,5,118,1,,,,,,,,,,,,,,,,,,,,,,,
,,,,,,,,,,,,,,,,,,,,,,,,,,,,,,,,,,,,,,,,,,,5ec1f52f74d69c62f8207c23,5fe192c0c39215c3d6ca4c47,2020-12-22_00h32.00.757,FlowerSimilarity_Experiment,2020.1.2,Win32,60,5fe17d4a51f3a9c1a60f9869,,,,,,,,,,,,,,,,,,,2,PF,,3,7.4147,,,,,,,,,,,,,,,,,,,,,,,,,,,,,,,,,,-41,-101,1,0,0,response5disk,8,7,-11,-2,1,0,0,rectangle,-11,-2,1,0,0,,6,"[64,218,207,272,205,126,320,229,107,265,246,185,167,299,206,271,65,150,96,86]",-11,-2,1,0,0,0,6,6,52,1,,,,,,,,,,,,,,,,,,,,,,,
,,,,,,,,,,,,,,,,,,,,,,,,,,,,,,,,,,,,,,,,,,,5ec1f52f74d69c62f8207c23,5fe192c0c39215c3d6ca4c47,2020-12-22_00h32.00.757,FlowerSimilarity_Experiment,2020.1.2,Win32,60,5fe17d4a51f3a9c1a60f9869,,,,,,,,,,,,,,,,,,,6,PF,,6,5.59108,,,,,,,,,,,,,,,,,,,,,,,,,,,,,,,,,,100,35,1,0,0,response1disk,6,8,-3,0,1,0,0,rectangle,-3,0,1,0,0,,5,"[64,218,207,272,205,126,320,229,107,265,246,185,167,299,206,271,65,150,96,86]",-3,0,1,0,0,0,7,7,0,1,,,,,,,,,,,,,,,,,,,,,,,
,,,,,,,,,,,,,,,,,,,,,,,,,,,,,,,,,,,,,,,,,,,5ec1f52f74d69c62f8207c23,5fe192c0c39215c3d6ca4c47,2020-12-22_00h32.00.757,FlowerSimilarity_Experiment,2020.1.2,Win32,60,5fe17d4a51f3a9c1a60f9869,,,,,,,,,,,,,,,,,,,3,FF,,3,3.479205,,,,,,,,,,,,,,,,,,,,,,,,,,,,,,,,,,-40,-102,1,0,0,response5disk,5,9,1,-5,1,0,0,rectangle,1,-5,1,0,0,,3,"[64,218,207,272,205,126,320,229,107,265,246,185,167,299,206,271,65,150,96,86]",1,-5,1,0,0,0,8,8,101,1,,,,,,,,,,,,,,,,,,,,,,,
,,,,,,,,,,,,,,,,,,,,,,,,,,,,,,,,,,,,,,,,,,,5ec1f52f74d69c62f8207c23,5fe192c0c39215c3d6ca4c47,2020-12-22_00h32.00.757,FlowerSimilarity_Experiment,2020.1.2,Win32,60,5fe17d4a51f3a9c1a60f9869,,,,,,,,,,,,,,,,,,,6,PF,,2,1.86866,,,,,,,,,,,,,,,,,,,,,,,,,,,,,,,,,,-83,-33,1,0,0,response5disk,9,10,-5,-7,1,0,0,rectangle,-5,-7,1,0,0,,7,"[64,218,207,272,205,126,320,229,107,265,246,185,167,299,206,271,65,150,96,86]",-5,-7,1,0,0,0,9,9,45,1,,,,,,,,,,,,,,,,,,,,,,,
,,,,,,,,,,,,,,,,,,,,,,,,,,,,,,,,,,,,,,,,,,,5ec1f52f74d69c62f8207c23,5fe192c0c39215c3d6ca4c47,2020-12-22_00h32.00.757,FlowerSimilarity_Experiment,2020.1.2,Win32,60,5fe17d4a51f3a9c1a60f9869,,,,,,,,,,,,,,,,,,,5,PF,,7,1.87749,,,,,,,,,,,,,,,,,,,,,,,,,,,,,,,,,,38,102,1,0,0,response1disk,4,11,-10,-2,1,0,0,rectangle,-10,-2,1,0,0,,3,"[64,218,207,272,205,126,320,229,107,265,246,185,167,299,206,271,65,150,96,86]",-10,-2,1,0,0,0,10,10,54,1,,,,,,,,,,,,,,,,,,,,,,,
,,,,,,,,,,,,,,,,,,,,,,,,,,,,,,,,,,,,,,,,,,,5ec1f52f74d69c62f8207c23,5fe192c0c39215c3d6ca4c47,2020-12-22_00h32.00.757,FlowerSimilarity_Experiment,2020.1.2,Win32,60,5fe17d4a51f3a9c1a60f9869,,,,,,,,,,,,,,,,,,,2,PF,,5,5.73355,,,,,,,,,,,,,,,,,,,,,,,,,,,,,,,,,,81,-38,1,0,0,response3disk,1,12,3,5,1,0,0,rectangle,3,5,1,0,0,,5,"[64,218,207,272,205,126,320,229,107,265,246,185,167,299,206,271,65,150,96,86]",3,5,1,0,0,0,11,11,9,1,,,,,,,,,,,,,,,,,,,,,,,
,,,,,,,,,,,,,,,,,,,,,,,,,,,,,,,,,,,,,,,,,,,5ec1f52f74d69c62f8207c23,5fe192c0c39215c3d6ca4c47,2020-12-22_00h32.00.757,FlowerSimilarity_Experiment,2020.1.2,Win32,60,5fe17d4a51f3a9c1a60f9869,,,,,,,,,,,,,,,,,,,8,FF,,3,2.081865,,,,,,,,,,,,,,,,,,,,,,,,,,,,,,,,,,-41,-103,1,0,0,response5disk,7,13,-4,-13,1,0,0,rectangle,-4,-13,1,0,0,,7,"[64,218,207,272,205,126,320,229,107,265,246,185,167,299,206,271,65,150,96,86]",-4,-13,1,0,0,0,12,12,86,1,,,,,,,,,,,,,,,,,,,,,,,
,,,,,,,,,,,,,,,,,,,,,,,,,,,,,,,,,,,,,,,,,,,5ec1f52f74d69c62f8207c23,5fe192c0c39215c3d6ca4c47,2020-12-22_00h32.00.757,FlowerSimilarity_Experiment,2020.1.2,Win32,60,5fe17d4a51f3a9c1a60f9869,,,,,,,,,,,,,,,,,,,3,FF,,3,1.531465,,,,,,,,,,,,,,,,,,,,,,,,,,,,,,,,,,-46,-103,1,0,0,response5disk,8,14,-5,-12,1,0,0,rectangle,-5,-12,1,0,0,,4,"[64,218,207,272,205,126,320,229,107,265,246,185,167,299,206,271,65,150,96,86]",-5,-12,1,0,0,0,13,13,44,1,,,,,,,,,,,,,,,,,,,,,,,
,,,,,,,,,,,,,,,,,,,,,,,,,,,,,,,,,,,,,,,,,,,5ec1f52f74d69c62f8207c23,5fe192c0c39215c3d6ca4c47,2020-12-22_00h32.00.757,FlowerSimilarity_Experiment,2020.1.2,Win32,60,5fe17d4a51f3a9c1a60f9869,,,,,,,,,,,,,,,,,,,4,FF,,7,4.455935,,,,,,,,,,,,,,,,,,,,,,,,,,,,,,,,,,34,92,1,0,0,response1disk,9,15,-1,-6,1,0,0,rectangle,-1,-6,1,0,0,,2,"[64,218,207,272,205,126,320,229,107,265,246,185,167,299,206,271,65,150,96,86]",-1,-6,1,0,0,0,14,14,90,1,,,,,,,,,,,,,,,,,,,,,,,
,,,,,,,,,,,,,,,,,,,,,,,,,,,,,,,,,,,,,,,,,,,5ec1f52f74d69c62f8207c23,5fe192c0c39215c3d6ca4c47,2020-12-22_00h32.00.757,FlowerSimilarity_Experiment,2020.1.2,Win32,60,5fe17d4a51f3a9c1a60f9869,,,,,,,,,,,,,,,,,,,9,FF,,2,2.109265,,,,,,,,,,,,,,,,,,,,,,,,,,,,,,,,,,-84,-38,1,0,0,response5disk,1,16,-18,4,1,0,0,rectangle,-18,4,1,0,0,,4,"[64,218,207,272,205,126,320,229,107,265,246,185,167,299,206,271,65,150,96,86]",-18,4,1,0,0,0,15,15,111,1,,,,,,,,,,,,,,,,,,,,,,,
,,,,,,,,,,,,,,,,,,,,,,,,,,,,,,,,,,,,,,,,,,,5ec1f52f74d69c62f8207c23,5fe192c0c39215c3d6ca4c47,2020-12-22_00h32.00.757,FlowerSimilarity_Experiment,2020.1.2,Win32,60,5fe17d4a51f3a9c1a60f9869,,,,,,,,,,,,,,,,,,,7,FF,,1,4.759565,,,,,,,,,,,,,,,,,,,,,,,,,,,,,,,,,,-87,37,1,0,0,response7disk,7,17,-1,2,1,0,0,rectangle,-1,2,1,0,0,,7,"[64,218,207,272,205,126,320,229,107,265,246,185,167,299,206,271,65,150,96,86]",-1,2,1,0,0,0,16,16,34,1,,,,,,,,,,,,,,,,,,,,,,,
,,,,,,,,,,,,,,,,,,,,,,,,,,,,,,,,,,,,,,,,,,,5ec1f52f74d69c62f8207c23,5fe192c0c39215c3d6ca4c47,2020-12-22_00h32.00.757,FlowerSimilarity_Experiment,2020.1.2,Win32,60,5fe17d4a51f3a9c1a60f9869,,,,,,,,,,,,,,,,,,,5,FF,,3,2.600245,,,,,,,,,,,,,,,,,,,,,,,,,,,,,,,,,,-36,-101,1,0,0,response5disk,8,18,-4,6,1,0,0,rectangle,-4,6,1,0,0,,7,"[64,218,207,272,205,126,320,229,107,265,246,185,167,299,206,271,65,150,96,86]",-4,6,1,0,0,0,17,17,16,1,,,,,,,,,,,,,,,,,,,,,,,
,,,,,,,,,,,,,,,,,,,,,,,,,,,,,,,,,,,,,,,,,,,5ec1f52f74d69c62f8207c23,5fe192c0c39215c3d6ca4c47,2020-12-22_00h32.00.757,FlowerSimilarity_Experiment,2020.1.2,Win32,60,5fe17d4a51f3a9c1a60f9869,,,,,,,,,,,,,,,,,,,4,PF,,4,6.999665,,,,,,,,,,,,,,,,,,,,,,,,,,,,,,,,,,42,-95,1,0,0,response3disk,6,19,8,-11,1,0,0,rectangle,8,-11,1,0,0,,7,"[64,218,207,272,205,126,320,229,107,265,246,185,167,299,206,271,65,150,96,86]",8,-11,1,0,0,0,18,18,120,1,,,,,,,,,,,,,,,,,,,,,,,
,,,,,,,,,,,,,,,,,,,,,,,,,,,,,,,,,,,,,,,,,,,5ec1f52f74d69c62f8207c23,5fe192c0c39215c3d6ca4c47,2020-12-22_00h32.00.757,FlowerSimilarity_Experiment,2020.1.2,Win32,60,5fe17d4a51f3a9c1a60f9869,,,,,,,,,,,,,,,,,,,8,FF,,7,5.224,,,,,,,,,,,,,,,,,,,,,,,,,,,,,,,,,,41,96,1,0,0,response1disk,6,20,6,2,1,0,0,rectangle,6,2,1,0,0,,1,"[64,218,207,272,205,126,320,229,107,265,246,185,167,299,206,271,65,150,96,86]",6,2,1,0,0,0,19,19,37,1,,,,,,,,,,,,,,,,,,,,,,,
,,,,,,,,,,,,,,,,,,,,,,,,,,,,,,,,,,,,,,,,,,,5ec1f52f74d69c62f8207c23,5fe192c0c39215c3d6ca4c47,2020-12-22_00h32.00.757,FlowerSimilarity_Experiment,2020.1.2,Win32,60,5fe17d4a51f3a9c1a60f9869,,,,,,,,,,,,,,,,,,,4,FF,,7,3.432235,,,,,,,,,,,,,,,,,,,,,,,,,,,,,,,,,,39,102,1,0,0,response1disk,5,21,-10,5,1,0,0,rectangle,-10,5,1,0,0,,1,"[64,218,207,272,205,126,320,229,107,265,246,185,167,299,206,271,65,150,96,86]",-10,5,1,0,0,0,20,20,116,1,,,,,,,,,,,,,,,,,,,,,,,
,,,,,,,,,,,,,,,,,,,,,,,,,,,,,,,,,,,,,,,,,,,5ec1f52f74d69c62f8207c23,5fe192c0c39215c3d6ca4c47,2020-12-22_00h32.00.757,FlowerSimilarity_Experiment,2020.1.2,Win32,60,5fe17d4a51f3a9c1a60f9869,,,,,,,,,,,,,,,,,,,3,PF,,4,3.491605,,,,,,,,,,,,,,,,,,,,,,,,,,,,,,,,,,45,-109,1,0,0,response3disk,5,22,4,0,1,0,0,rectangle,4,0,1,0,0,,7,"[64,218,207,272,205,126,320,229,107,265,246,185,167,299,206,271,65,150,96,86]",4,0,1,0,0,0,21,21,66,1,,,,,,,,,,,,,,,,,,,,,,,
,,,,,,,,,,,,,,,,,,,,,,,,,,,,,,,,,,,,,,,,,,,5ec1f52f74d69c62f8207c23,5fe192c0c39215c3d6ca4c47,2020-12-22_00h32.00.757,FlowerSimilarity_Experiment,2020.1.2,Win32,60,5fe17d4a51f3a9c1a60f9869,,,,,,,,,,,,,,,,,,,9,PF,,7,1.462505,,,,,,,,,,,,,,,,,,,,,,,,,,,,,,,,,,43,95,1,0,0,response1disk,5,23,1,-2,1,0,0,rectangle,1,-2,1,0,0,,2,"[64,218,207,272,205,126,320,229,107,265,246,185,167,299,206,271,65,150,96,86]",1,-2,1,0,0,0,22,22,134,1,,,,,,,,,,,,,,,,,,,,,,,
,,,,,,,,,,,,,,,,,,,,,,,,,,,,,,,,,,,,,,,,,,,5ec1f52f74d69c62f8207c23,5fe192c0c39215c3d6ca4c47,2020-12-22_00h32.00.757,FlowerSimilarity_Experiment,2020.1.2,Win32,60,5fe17d4a51f3a9c1a60f9869,,,,,,,,,,,,,,,,,,,4,PF,,7,2.62965,,,,,,,,,,,,,,,,,,,,,,,,,,,,,,,,,,36,99,1,0,0,response1disk,3,24,8,3,1,0,0,rectangle,8,3,1,0,0,,2,"[64,218,207,272,205,126,320,229,107,265,246,185,167,299,206,271,65,150,96,86]",8,3,1,0,0,0,23,23,89,1,,,,,,,,,,,,,,,,,,,,,,,
,,,,,,,,,,,,,,,,,,,,,,,,,,,,,,,,,,,,,,,,,,,5ec1f52f74d69c62f8207c23,5fe192c0c39215c3d6ca4c47,2020-12-22_00h32.00.757,FlowerSimilarity_Experiment,2020.1.2,Win32,60,5fe17d4a51f3a9c1a60f9869,,,,,,,,,,,,,,,,,,,3,PF,,5,7.666325,,,,,,,,,,,,,,,,,,,,,,,,,,,,,,,,,,82,-34,1,0,0,response3disk,3,25,-4,4,1,0,0,rectangle,-4,4,1,0,0,,0,"[64,218,207,272,205,126,320,229,107,265,246,185,167,299,206,271,65,150,96,86]",-4,4,1,0,0,0,24,24,4,1,,,,,,,,,,,,,,,,,,,,,,,
,,,,,,,,,,,,,,,,,,,,,,,,,,,,,,,,,,,,,,,,,,,5ec1f52f74d69c62f8207c23,5fe192c0c39215c3d6ca4c47,2020-12-22_00h32.00.757,FlowerSimilarity_Experiment,2020.1.2,Win32,60,5fe17d4a51f3a9c1a60f9869,,,,,,,,,,,,,,,,,,,2,FF,,0,1.85468,,,,,,,,,,,,,,,,,,,,,,,,,,,,,,,,,,-34,99,1,0,0,response7disk,2,26,-1,11,1,0,0,rectangle,-1,11,1,0,0,,7,"[64,218,207,272,205,126,320,229,107,265,246,185,167,299,206,271,65,150,96,86]",-1,11,1,0,0,0,25,25,142,1,,,,,,,,,,,,,,,,,,,,,,,
,,,,,,,,,,,,,,,,,,,,,,,,,,,,,,,,,,,,,,,,,,,5ec1f52f74d69c62f8207c23,5fe192c0c39215c3d6ca4c47,2020-12-22_00h32.00.757,FlowerSimilarity_Experiment,2020.1.2,Win32,60,5fe17d4a51f3a9c1a60f9869,,,,,,,,,,,,,,,,,,,9,FF,,7,1.38216,,,,,,,,,,,,,,,,,,,,,,,,,,,,,,,,,,36,102,1,0,0,response1disk,7,27,1,10,1,0,0,rectangle,1,10,1,0,0,,4,"[64,218,207,272,205,126,320,229,107,265,246,185,167,299,206,271,65,150,96,86]",1,10,1,0,0,0,26,26,100,1,,,,,,,,,,,,,,,,,,,,,,,
,,,,,,,,,,,,,,,,,,,,,,,,,,,,,,,,,,,,,,,,,,,5ec1f52f74d69c62f8207c23,5fe192c0c39215c3d6ca4c47,2020-12-22_00h32.00.757,FlowerSimilarity_Experiment,2020.1.2,Win32,60,5fe17d4a51f3a9c1a60f9869,,,,,,,,,,,,,,,,,,,4,FF,,2,3.62739,,,,,,,,,,,,,,,,,,,,,,,,,,,,,,,,,,-84,-36,1,0,0,response5disk,2,28,-8,-5,1,0,0,rectangle,-8,-5,1,0,0,,6,"[64,218,207,272,205,126,320,229,107,265,246,185,167,299,206,271,65,150,96,86]",-8,-5,1,0,0,0,27,27,13,1,,,,,,,,,,,,,,,,,,,,,,,
,,,,,,,,,,,,,,,,,,,,,,,,,,,,,,,,,,,,,,,,,,,5ec1f52f74d69c62f8207c23,5fe192c0c39215c3d6ca4c47,2020-12-22_00h32.00.757,FlowerSimilarity_Experiment,2020.1.2,Win32,60,5fe17d4a51f3a9c1a60f9869,,,,,,,,,,,,,,,,,,,6,FF,,6,2.098675,,,,,,,,,,,,,,,,,,,,,,,,,,,,,,,,,,102,34,1,0,0,response1disk,8,29,14,5,1,0,0,rectangle,14,5,1,0,0,,0,"[64,218,207,272,205,126,320,229,107,265,246,185,167,299,206,271,65,150,96,86]",14,5,1,0,0,0,28,28,133,1,,,,,,,,,,,,,,,,,,,,,,,
,,,,,,,,,,,,,,,,,,,,,,,,,,,,,,,,,,,,,,,,,,,5ec1f52f74d69c62f8207c23,5fe192c0c39215c3d6ca4c47,2020-12-22_00h32.00.757,FlowerSimilarity_Experiment,2020.1.2,Win32,60,5fe17d4a51f3a9c1a60f9869,,,,,,,,,,,,,,,,,,,2,PF,,2,2.105545,,,,,,,,,,,,,,,,,,,,,,,,,,,,,,,,,,-82,-35,1,0,0,response5disk,5,30,1,4,1,0,0,rectangle,1,4,1,0,0,,2,"[64,218,207,272,205,126,320,229,107,265,246,185,167,299,206,271,65,150,96,86]",1,4,1,0,0,0,29,29,147,1,,,,,,,,,,,,,,,,,,,,,,,
,,,,,,,,,,,,,,,,,,,,,,,,,,,,,,,,,,,,,,,,,,,5ec1f52f74d69c62f8207c23,5fe192c0c39215c3d6ca4c47,2020-12-22_00h32.00.757,FlowerSimilarity_Experiment,2020.1.2,Win32,60,5fe17d4a51f3a9c1a60f9869,,,,,,,,,,,,,,,,,,,4,FF,,3,2.29327,,,,,,,,,,,,,,,,,,,,,,,,,,,,,,,,,,-40,-100,1,0,0,response5disk,1,31,0,-3,1,0,0,rectangle,0,-3,1,0,0,,6,"[64,218,207,272,205,126,320,229,107,265,246,185,167,299,206,271,65,150,96,86]",0,-3,1,0,0,0,30,30,102,1,,,,,,,,,,,,,,,,,,,,,,,
,,,,,,,,,,,,,,,,,,,,,,,,,,,,,,,,,,,,,,,,,,,5ec1f52f74d69c62f8207c23,5fe192c0c39215c3d6ca4c47,2020-12-22_00h32.00.757,FlowerSimilarity_Experiment,2020.1.2,Win32,60,5fe17d4a51f3a9c1a60f9869,,,,,,,,,,,,,,,,,,,9,FF,,6,1.770185,,,,,,,,,,,,,,,,,,,,,,,,,,,,,,,,,,98,33,1,0,0,response1disk,3,32,18,3,1,0,0,rectangle,18,3,1,0,0,,2,"[64,218,207,272,205,126,320,229,107,265,246,185,167,299,206,271,65,150,96,86]",18,3,1,0,0,0,31,31,141,1,,,,,,,,,,,,,,,,,,,,,,,
,,,,,,,,,,,,,,,,,,,,,,,,,,,,,,,,,,,,,,,,,,,5ec1f52f74d69c62f8207c23,5fe192c0c39215c3d6ca4c47,2020-12-22_00h32.00.757,FlowerSimilarity_Experiment,2020.1.2,Win32,60,5fe17d4a51f3a9c1a60f9869,,,,,,,,,,,,,,,,,,,3,PF,,3,3.58624,,,,,,,,,,,,,,,,,,,,,,,,,,,,,,,,,,-39,-103,1,0,0,response5disk,2,33,3,-1,1,0,0,rectangle,3,-1,1,0,0,,2,"[64,218,207,272,205,126,320,229,107,265,246,185,167,299,206,271,65,150,96,86]",3,-1,1,0,0,0,32,32,36,1,,,,,,,,,,,,,,,,,,,,,,,
,,,,,,,,,,,,,,,,,,,,,,,,,,,,,,,,,,,,,,,,,,,5ec1f52f74d69c62f8207c23,5fe192c0c39215c3d6ca4c47,2020-12-22_00h32.00.757,FlowerSimilarity_Experiment,2020.1.2,Win32,60,5fe17d4a51f3a9c1a60f9869,,,,,,,,,,,,,,,,,,,4,PF,,2,1.89034,,,,,,,,,,,,,,,,,,,,,,,,,,,,,,,,,,-85,-34,1,0,0,response5disk,7,34,-8,-1,1,0,0,rectangle,-8,-1,1,0,0,,3,"[64,218,207,272,205,126,320,229,107,265,246,185,167,299,206,271,65,150,96,86]",-8,-1,1,0,0,0,33,33,38,1,,,,,,,,,,,,,,,,,,,,,,,
,,,,,,,,,,,,,,,,,,,,,,,,,,,,,,,,,,,,,,,,,,,5ec1f52f74d69c62f8207c23,5fe192c0c39215c3d6ca4c47,2020-12-22_00h32.00.757,FlowerSimilarity_Experiment,2020.1.2,Win32,60,5fe17d4a51f3a9c1a60f9869,,,,,,,,,,,,,,,,,,,2,PF,,7,2.317575,,,,,,,,,,,,,,,,,,,,,,,,,,,,,,,,,,34,102,1,0,0,response1disk,6,35,-9,2,1,0,0,rectangle,-9,2,1,0,0,,2,"[64,218,207,272,205,126,320,229,107,265,246,185,167,299,206,271,65,150,96,86]",-9,2,1,0,0,0,34,34,113,1,,,,,,,,,,,,,,,,,,,,,,,
,,,,,,,,,,,,,,,,,,,,,,,,,,,,,,,,,,,,,,,,,,,5ec1f52f74d69c62f8207c23,5fe192c0c39215c3d6ca4c47,2020-12-22_00h32.00.757,FlowerSimilarity_Experiment,2020.1.2,Win32,60,5fe17d4a51f3a9c1a60f9869,,,,,,,,,,,,,,,,,,,6,FF,,4,2.600365,,,,,,,,,,,,,,,,,,,,,,,,,,,,,,,,,,44,-103,1,0,0,response3disk,4,36,-3,-9,1,0,0,rectangle,-3,-9,1,0,0,,2,"[64,218,207,272,205,126,320,229,107,265,246,185,167,299,206,271,65,150,96,86]",-3,-9,1,0,0,0,35,35,56,1,,,,,,,,,,,,,,,,,,,,,,,
,,,,,,,,,,,,,,,,,,,,,,,,,,,,,,,,,,,,,,,,,,,5ec1f52f74d69c62f8207c23,5fe192c0c39215c3d6ca4c47,2020-12-22_00h32.00.757,FlowerSimilarity_Experiment,2020.1.2,Win32,60,5fe17d4a51f3a9c1a60f9869,,,,,,,,,,,,,,,,,,,9,FF,,4,2.49006,,,,,,,,,,,,,,,,,,,,,,,,,,,,,,,,,,39,-103,1,0,0,response3disk,2,37,7,7,1,0,0,rectangle,7,7,1,0,0,,4,"[64,218,207,272,205,126,320,229,107,265,246,185,167,299,206,271,65,150,96,86]",7,7,1,0,0,0,36,36,11,1,,,,,,,,,,,,,,,,,,,,,,,
,,,,,,,,,,,,,,,,,,,,,,,,,,,,,,,,,,,,,,,,,,,5ec1f52f74d69c62f8207c23,5fe192c0c39215c3d6ca4c47,2020-12-22_00h32.00.757,FlowerSimilarity_Experiment,2020.1.2,Win32,60,5fe17d4a51f3a9c1a60f9869,,,,,,,,,,,,,,,,,,,4,PF,,6,2.19564,,,,,,,,,,,,,,,,,,,,,,,,,,,,,,,,,,101,37,1,0,0,response1disk,8,38,14,6,1,0,0,rectangle,14,6,1,0,0,,5,"[64,218,207,272,205,126,320,229,107,265,246,185,167,299,206,271,65,150,96,86]",14,6,1,0,0,0,37,37,124,1,,,,,,,,,,,,,,,,,,,,,,,
,,,,,,,,,,,,,,,,,,,,,,,,,,,,,,,,,,,,,,,,,,,5ec1f52f74d69c62f8207c23,5fe192c0c39215c3d6ca4c47,2020-12-22_00h32.00.757,FlowerSimilarity_Experiment,2020.1.2,Win32,60,5fe17d4a51f3a9c1a60f9869,,,,,,,,,,,,,,,,,,,7,PF,,7,5.512025,,,,,,,,,,,,,,,,,,,,,,,,,,,,,,,,,,38,98,1,0,0,response1disk,1,39,5,9,1,0,0,rectangle,5,9,1,0,0,,2,"[64,218,207,272,205,126,320,229,107,265,246,185,167,299,206,271,65,150,96,86]",5,9,1,0,0,0,38,38,53,1,,,,,,,,,,,,,,,,,,,,,,,
,,,,,,,,,,,,,,,,,,,,,,,,,,,,,,,,,,,,,,,,,,,5ec1f52f74d69c62f8207c23,5fe192c0c39215c3d6ca4c47,2020-12-22_00h32.00.757,FlowerSimilarity_Experiment,2020.1.2,Win32,60,5fe17d4a51f3a9c1a60f9869,,,,,,,,,,,,,,,,,,,4,FF,,2,3.051345,,,,,,,,,,,,,,,,,,,,,,,,,,,,,,,,,,-86,-32,1,0,0,response5disk,7,40,-6,-2,1,0,0,rectangle,-6,-2,1,0,0,,1,"[64,218,207,272,205,126,320,229,107,265,246,185,167,299,206,271,65,150,96,86]",-6,-2,1,0,0,0,39,39,87,1,,,,,,,,,,,,,,,,,,,,,,,
,,,,,,,,,,,,,,,,,,,,,,,,,,,,,,,,,,,,,,,,,,,5ec1f52f74d69c62f8207c23,5fe192c0c39215c3d6ca4c47,2020-12-22_00h32.00.757,FlowerSimilarity_Experiment,2020.1.2,Win32,60,5fe17d4a51f3a9c1a60f9869,,,,,,,,,,,,,,,,,,,1,FF,,7,1.441145,,,,,,,,,,,,,,,,,,,,,,,,,,,,,,,,,,34,101,1,0,0,response1disk,8,41,5,-2,1,0,0,rectangle,5,-2,1,0,0,,6,"[64,218,207,272,205,126,320,229,107,265,246,185,167,299,206,271,65,150,96,86]",5,-2,1,0,0,0,40,40,27,1,,,,,,,,,,,,,,,,,,,,,,,
,,,,,,,,,,,,,,,,,,,,,,,,,,,,,,,,,,,,,,,,,,,5ec1f52f74d69c62f8207c23,5fe192c0c39215c3d6ca4c47,2020-12-22_00h32.00.757,FlowerSimilarity_Experiment,2020.1.2,Win32,60,5fe17d4a51f3a9c1a60f9869,,,,,,,,,,,,,,,,,,,4,FF,,5,3.85708,,,,,,,,,,,,,,,,,,,,,,,,,,,,,,,,,,86,-42,1,0,0,response3disk,6,42,-9,3,1,0,0,rectangle,-9,3,1,0,0,,4,"[64,218,207,272,205,126,320,229,107,265,246,185,167,299,206,271,65,150,96,86]",-9,3,1,0,0,0,41,41,122,1,,,,,,,,,,,,,,,,,,,,,,,
,,,,,,,,,,,,,,,,,,,,,,,,,,,,,,,,,,,,,,,,,,,5ec1f52f74d69c62f8207c23,5fe192c0c39215c3d6ca4c47,2020-12-22_00h32.00.757,FlowerSimilarity_Experiment,2020.1.2,Win32,60,5fe17d4a51f3a9c1a60f9869,,,,,,,,,,,,,,,,,,,1,FF,,0,1.621695,,,,,,,,,,,,,,,,,,,,,,,,,,,,,,,,,,-34,99,1,0,0,response7disk,1,43,-3,1,1,0,0,rectangle,-3,1,1,0,0,,7,"[64,218,207,272,205,126,320,229,107,265,246,185,167,299,206,271,65,150,96,86]",-3,1,1,0,0,0,42,42,151,1,,,,,,,,,,,,,,,,,,,,,,,
,,,,,,,,,,,,,,,,,,,,,,,,,,,,,,,,,,,,,,,,,,,5ec1f52f74d69c62f8207c23,5fe192c0c39215c3d6ca4c47,2020-12-22_00h32.00.757,FlowerSimilarity_Experiment,2020.1.2,Win32,60,5fe17d4a51f3a9c1a60f9869,,,,,,,,,,,,,,,,,,,3,FF,,2,5.534425,,,,,,,,,,,,,,,,,,,,,,,,,,,,,,,,,,-79,-42,1,0,0,response5disk,2,44,1,-4,1,0,0,rectangle,1,-4,1,0,0,,1,"[64,218,207,272,205,126,320,229,107,265,246,185,167,299,206,271,65,150,96,86]",1,-4,1,0,0,0,43,43,93,1,,,,,,,,,,,,,,,,,,,,,,,
,,,,,,,,,,,,,,,,,,,,,,,,,,,,,,,,,,,,,,,,,,,5ec1f52f74d69c62f8207c23,5fe192c0c39215c3d6ca4c47,2020-12-22_00h32.00.757,FlowerSimilarity_Experiment,2020.1.2,Win32,60,5fe17d4a51f3a9c1a60f9869,,,,,,,,,,,,,,,,,,,5,PF,,7,5.47728,,,,,,,,,,,,,,,,,,,,,,,,,,,,,,,,,,37,104,1,0,0,response1disk,6,45,6,7,1,0,0,rectangle,6,7,1,0,0,,5,"[64,218,207,272,205,126,320,229,107,265,246,185,167,299,206,271,65,150,96,86]",6,7,1,0,0,0,44,44,103,1,,,,,,,,,,,,,,,,,,,,,,,
,,,,,,,,,,,,,,,,,,,,,,,,,,,,,,,,,,,,,,,,,,,5ec1f52f74d69c62f8207c23,5fe192c0c39215c3d6ca4c47,2020-12-22_00h32.00.757,FlowerSimilarity_Experiment,2020.1.2,Win32,60,5fe17d4a51f3a9c1a60f9869,,,,,,,,,,,,,,,,,,,6,FF,,7,3.036825,,,,,,,,,,,,,,,,,,,,,,,,,,,,,,,,,,39,102,1,0,0,response1disk,7,46,-5,9,1,0,0,rectangle,-5,9,1,0,0,,4,"[64,218,207,272,205,126,320,229,107,265,246,185,167,299,206,271,65,150,96,86]",-5,9,1,0,0,0,45,45,18,1,,,,,,,,,,,,,,,,,,,,,,,
,,,,,,,,,,,,,,,,,,,,,,,,,,,,,,,,,,,,,,,,,,,5ec1f52f74d69c62f8207c23,5fe192c0c39215c3d6ca4c47,2020-12-22_00h32.00.757,FlowerSimilarity_Experiment,2020.1.2,Win32,60,5fe17d4a51f3a9c1a60f9869,,,,,,,,,,,,,,,,,,,8,PF,,7,3.302235,,,,,,,,,,,,,,,,,,,,,,,,,,,,,,,,,,35,102,1,0,0,response1disk,6,47,11,6,1,0,0,rectangle,11,6,1,0,0,,2,"[64,218,207,272,205,126,320,229,107,265,246,185,167,299,206,271,65,150,96,86]",11,6,1,0,0,0,46,46,161,1,,,,,,,,,,,,,,,,,,,,,,,
,,,,,,,,,,,,,,,,,,,,,,,,,,,,,,,,,,,,,,,,,,,5ec1f52f74d69c62f8207c23,5fe192c0c39215c3d6ca4c47,2020-12-22_00h32.00.757,FlowerSimilarity_Experiment,2020.1.2,Win32,60,5fe17d4a51f3a9c1a60f9869,,,,,,,,,,,,,,,,,,,6,PF,,7,3.069285,,,,,,,,,,,,,,,,,,,,,,,,,,,,,,,,,,40,105,1,0,0,response1disk,3,48,0,4,1,0,0,rectangle,0,4,1,0,0,,2,"[64,218,207,272,205,126,320,229,107,265,246,185,167,299,206,271,65,150,96,86]",0,4,1,0,0,0,47,47,26,1,,,,,,,,,,,,,,,,,,,,,,,
,,,,,,,,,,,,,,,,,,,,,,,,,,,,,,,,,,,,,,,,,,,5ec1f52f74d69c62f8207c23,5fe192c0c39215c3d6ca4c47,2020-12-22_00h32.00.757,FlowerSimilarity_Experiment,2020.1.2,Win32,60,5fe17d4a51f3a9c1a60f9869,,,,,,,,,,,,,,,,,,,9,PF,,1,3.037225,,,,,,,,,,,,,,,,,,,,,,,,,,,,,,,,,,-83,30,1,0,0,response7disk,6,49,8,1,1,0,0,rectangle,8,1,1,0,0,,1,"[64,218,207,272,205,126,320,229,107,265,246,185,167,299,206,271,65,150,96,86]",8,1,1,0,0,0,48,48,148,1,,,,,,,,,,,,,,,,,,,,,,,
,,,,,,,,,,,,,,,,,,,,,,,,,,,,,,,,,,,,,,,,,,,5ec1f52f74d69c62f8207c23,5fe192c0c39215c3d6ca4c47,2020-12-22_00h32.00.757,FlowerSimilarity_Experiment,2020.1.2,Win32,60,5fe17d4a51f3a9c1a60f9869,,,,,,,,,,,,,,,,,,,2,FF,,7,3.9426,,,,,,,,,,,,,,,,,,,,,,,,,,,,,,,,,,39,99,1,0,0,response1disk,6,50,-9,-3,1,0,0,rectangle,-9,-3,1,0,0,,6,"[64,218,207,272,205,126,320,229,107,265,246,185,167,299,206,271,65,150,96,86]",-9,-3,1,0,0,0,49,49,40,1,,,,,,,,,,,,,,,,,,,,,,,
,,,,,,,,,,,,,,,,,,,,,,,,,,,,,,,,,,,,,,,,,,,5ec1f52f74d69c62f8207c23,5fe192c0c39215c3d6ca4c47,2020-12-22_00h32.00.757,FlowerSimilarity_Experiment,2020.1.2,Win32,60,5fe17d4a51f3a9c1a60f9869,,,,,,,,,,,,,,,,,,,9,FF,,7,3.254415,,,,,,,,,,,,,,,,,,,,,,,,,,,,,,,,,,43,100,1,0,0,response1disk,5,51,7,7,1,0,0,rectangle,7,7,1,0,0,,4,"[64,218,207,272,205,126,320,229,107,265,246,185,167,299,206,271,65,150,96,86]",7,7,1,0,0,0,50,50,128,1,,,,,,,,,,,,,,,,,,,,,,,
,,,,,,,,,,,,,,,,,,,,,,,,,,,,,,,,,,,,,,,,,,,5ec1f52f74d69c62f8207c23,5fe192c0c39215c3d6ca4c47,2020-12-22_00h32.00.757,FlowerSimilarity_Experiment,2020.1.2,Win32,60,5fe17d4a51f3a9c1a60f9869,,,,,,,,,,,,,,,,,,,9,FF,,6,1.930215,,,,,,,,,,,,,,,,,,,,,,,,,,,,,,,,,,99,37,1,0,0,response1disk,8,52,-3,2,1,0,0,rectangle,-3,2,1,0,0,,4,"[64,218,207,272,205,126,320,229,107,265,246,185,167,299,206,271,65,150,96,86]",-3,2,1,0,0,0,51,51,6,1,,,,,,,,,,,,,,,,,,,,,,,
,,,,,,,,,,,,,,,,,,,,,,,,,,,,,,,,,,,,,,,,,,,5ec1f52f74d69c62f8207c23,5fe192c0c39215c3d6ca4c47,2020-12-22_00h32.00.757,FlowerSimilarity_Experiment,2020.1.2,Win32,60,5fe17d4a51f3a9c1a60f9869,,,,,,,,,,,,,,,,,,,2,FF,,2,3.696705,,,,,,,,,,,,,,,,,,,,,,,,,,,,,,,,,,-79,-37,1,0,0,response5disk,5,53,9,6,1,0,0,rectangle,9,6,1,0,0,,6,"[64,218,207,272,205,126,320,229,107,265,246,185,167,299,206,271,65,150,96,86]",9,6,1,0,0,0,52,52,80,1,,,,,,,,,,,,,,,,,,,,,,,
,,,,,,,,,,,,,,,,,,,,,,,,,,,,,,,,,,,,,,,,,,,5ec1f52f74d69c62f8207c23,5fe192c0c39215c3d6ca4c47,2020-12-22_00h32.00.757,FlowerSimilarity_Experiment,2020.1.2,Win32,60,5fe17d4a51f3a9c1a60f9869,,,,,,,,,,,,,,,,,,,3,FF,,4,2.23313,,,,,,,,,,,,,,,,,,,,,,,,,,,,,,,,,,42,-100,1,0,0,response3disk,4,54,6,1,1,0,0,rectangle,6,1,1,0,0,,6,"[64,218,207,272,205,126,320,229,107,265,246,185,167,299,206,271,65,150,96,86]",6,1,1,0,0,0,53,53,110,1,,,,,,,,,,,,,,,,,,,,,,,
,,,,,,,,,,,,,,,,,,,,,,,,,,,,,,,,,,,,,,,,,,,5ec1f52f74d69c62f8207c23,5fe192c0c39215c3d6ca4c47,2020-12-22_00h32.00.757,FlowerSimilarity_Experiment,2020.1.2,Win32,60,5fe17d4a51f3a9c1a60f9869,,,,,,,,,,,,,,,,,,,8,PF,,1,1.91364,,,,,,,,,,,,,,,,,,,,,,,,,,,,,,,,,,-85,36,1,0,0,response7disk,5,55,-24,-3,1,0,0,rectangle,-24,-3,1,0,0,,1,"[64,218,207,272,205,126,320,229,107,265,246,185,167,299,206,271,65,150,96,86]",-24,-3,1,0,0,0,54,54,98,1,,,,,,,,,,,,,,,,,,,,,,,
,,,,,,,,,,,,,,,,,,,,,,,,,,,,,,,,,,,,,,,,,,,5ec1f52f74d69c62f8207c23,5fe192c0c39215c3d6ca4c47,2020-12-22_00h32.00.757,FlowerSimilarity_Experiment,2020.1.2,Win32,60,5fe17d4a51f3a9c1a60f9869,,,,,,,,,,,,,,,,,,,8,FF,,3,4.094965,,,,,,,,,,,,,,,,,,,,,,,,,,,,,,,,,,-37,-108,1,0,0,response5disk,2,56,-5,-1,1,0,0,rectangle,-5,-1,1,0,0,,5,"[64,218,207,272,205,126,320,229,107,265,246,185,167,299,206,271,65,150,96,86]",-5,-1,1,0,0,0,55,55,22,1,,,,,,,,,,,,,,,,,,,,,,,
,,,,,,,,,,,,,,,,,,,,,,,,,,,,,,,,,,,,,,,,,,,5ec1f52f74d69c62f8207c23,5fe192c0c39215c3d6ca4c47,2020-12-22_00h32.00.757,FlowerSimilarity_Experiment,2020.1.2,Win32,60,5fe17d4a51f3a9c1a60f9869,,,,,,,,,,,,,,,,,,,4,FF,,5,3.11424,,,,,,,,,,,,,,,,,,,,,,,,,,,,,,,,,,83,-33,1,0,0,response3disk,8,57,12,6,1,0,0,rectangle,12,6,1,0,0,,2,"[64,218,207,272,205,126,320,229,107,265,246,185,167,299,206,271,65,150,96,86]",12,6,1,0,0,0,56,56,35,1,,,,,,,,,,,,,,,,,,,,,,,
,,,,,,,,,,,,,,,,,,,,,,,,,,,,,,,,,,,,,,,,,,,5ec1f52f74d69c62f8207c23,5fe192c0c39215c3d6ca4c47,2020-12-22_00h32.00.757,FlowerSimilarity_Experiment,2020.1.2,Win32,60,5fe17d4a51f3a9c1a60f9869,,,,,,,,,,,,,,,,,,,7,FF,,6,3.229215,,,,,,,,,,,,,,,,,,,,,,,,,,,,,,,,,,96,38,1,0,0,response1disk,4,58,9,3,1,0,0,rectangle,9,3,1,0,0,,5,"[64,218,207,272,205,126,320,229,107,265,246,185,167,299,206,271,65,150,96,86]",9,3,1,0,0,0,57,57,158,1,,,,,,,,,,,,,,,,,,,,,,,
,,,,,,,,,,,,,,,,,,,,,,,,,,,,,,,,,,,,,,,,,,,5ec1f52f74d69c62f8207c23,5fe192c0c39215c3d6ca4c47,2020-12-22_00h32.00.757,FlowerSimilarity_Experiment,2020.1.2,Win32,60,5fe17d4a51f3a9c1a60f9869,,,,,,,,,,,,,,,,,,,3,PF,,7,4.84709,,,,,,,,,,,,,,,,,,,,,,,,,,,,,,,,,,43,96,1,0,0,response1disk,9,59,6,14,1,0,0,rectangle,6,14,1,0,0,,5,"[64,218,207,272,205,126,320,229,107,265,246,185,167,299,206,271,65,150,96,86]",6,14,1,0,0,0,58,58,79,1,,,,,,,,,,,,,,,,,,,,,,,
,,,,,,,,,,,,,,,,,,,,,,,,,,,,,,,,,,,,,,,,,,,5ec1f52f74d69c62f8207c23,5fe192c0c39215c3d6ca4c47,2020-12-22_00h32.00.757,FlowerSimilarity_Experiment,2020.1.2,Win32,60,5fe17d4a51f3a9c1a60f9869,,,,,,,,,,,,,,,,,,,2,PF,,7,5.74934,,,,,,,,,,,,,,,,,,,,,,,,,,,,,,,,,,39,102,1,0,0,response1disk,9,60,5,-1,1,0,0,rectangle,5,-1,1,0,0,,4,"[64,218,207,272,205,126,320,229,107,265,246,185,167,299,206,271,65,150,96,86]",5,-1,1,0,0,0,59,59,39,1,,,,,,,,,,,,,,,,,,,,,,,
,,,,,,,,,,,,,,,,,,,,,,,,,,,,,,,,,,,,,,,,,,,5ec1f52f74d69c62f8207c23,5fe192c0c39215c3d6ca4c47,2020-12-22_00h32.00.757,FlowerSimilarity_Experiment,2020.1.2,Win32,60,5fe17d4a51f3a9c1a60f9869,,,,,,,,,,,,,,,,,,,6,FF,,7,4.14,,,,,,,,,,,,,,,,,,,,,,,,,,,,,,,,,,43,100,1,0,0,response1disk,3,61,-5,10,1,0,0,rectangle,-5,10,1,0,0,,5,"[64,218,207,272,205,126,320,229,107,265,246,185,167,299,206,271,65,150,96,86]",-5,10,1,0,0,0,60,60,21,1,,,,,,,,,,,,,,,,,,,,,,,
,,,,,,,,,,,,,,,,,,,,,,,,,,,,,,,,,,,,,,,,,,,5ec1f52f74d69c62f8207c23,5fe192c0c39215c3d6ca4c47,2020-12-22_00h32.00.757,FlowerSimilarity_Experiment,2020.1.2,Win32,60,5fe17d4a51f3a9c1a60f9869,,,,,,,,,,,,,,,,,,,4,FF,,5,2.91576,,,,,,,,,,,,,,,,,,,,,,,,,,,,,,,,,,82,-38,1,0,0,response3disk,3,62,0,5,1,0,0,rectangle,0,5,1,0,0,,6,"[64,218,207,272,205,126,320,229,107,265,246,185,167,299,206,271,65,150,96,86]",0,5,1,0,0,0,61,61,77,1,,,,,,,,,,,,,,,,,,,,,,,
,,,,,,,,,,,,,,,,,,,,,,,,,,,,,,,,,,,,,,,,,,,5ec1f52f74d69c62f8207c23,5fe192c0c39215c3d6ca4c47,2020-12-22_00h32.00.757,FlowerSimilarity_Experiment,2020.1.2,Win32,60,5fe17d4a51f3a9c1a60f9869,,,,,,,,,,,,,,,,,,,3,PF,,6,2.623455,,,,,,,,,,,,,,,,,,,,,,,,,,,,,,,,,,101,33,1,0,0,response1disk,4,63,-3,-1,1,0,0,rectangle,-3,-1,1,0,0,,4,"[64,218,207,272,205,126,320,229,107,265,246,185,167,299,206,271,65,150,96,86]",-3,-1,1,0,0,0,62,62,30,1,,,,,,,,,,,,,,,,,,,,,,,
,,,,,,,,,,,,,,,,,,,,,,,,,,,,,,,,,,,,,,,,,,,5ec1f52f74d69c62f8207c23,5fe192c0c39215c3d6ca4c47,2020-12-22_00h32.00.757,FlowerSimilarity_Experiment,2020.1.2,Win32,60,5fe17d4a51f3a9c1a60f9869,,,,,,,,,,,,,,,,,,,8,PF,,3,2.89583,,,,,,,,,,,,,,,,,,,,,,,,,,,,,,,,,,-35,-99,1,0,0,response5disk,7,64,-9,-5,1,0,0,rectangle,-84,31,1,0,0,1,1,"[64,218,207,272,205,126,320,229,107,265,246,185,167,299,206,271,65,150,96,86]",-5,0,1,0,0,0,63,63,23,1,response7disk_3,rectangle,,,,,,,,,,,,,,,,,,,,,
,,,,,,,,,,,,,,,,,,,,,,,,,,,,,,,,,,,,,,,,,,,5ec1f52f74d69c62f8207c23,5fe192c0c39215c3d6ca4c47,2020-12-22_00h32.00.757,FlowerSimilarity_Experiment,2020.1.2,Win32,60,5fe17d4a51f3a9c1a60f9869,,,,,,,,,,,,,,,,,,,6,PF,,4,2.380385,,,,,,,,,,,,,,,,,,,,,,,,,,,,,,,,,,44,-103,1,0,0,response3disk,1,65,-4,-14,1,0,0,rectangle,39,-99,1,0,0,4,4,"[64,218,207,272,205,126,320,229,107,265,246,185,167,299,206,271,65,150,96,86]",7,1,1,0,0,0,64,64,46,1,response3disk_3,rectangle,,,,,,,,,,,,,,,,,,,,,
,,,,,,,,,,,,,,,,,,,,,,,,,,,,,,,,,,,,,,,,,,,5ec1f52f74d69c62f8207c23,5fe192c0c39215c3d6ca4c47,2020-12-22_00h32.00.757,FlowerSimilarity_Experiment,2020.1.2,Win32,60,5fe17d4a51f3a9c1a60f9869,,,,,,,,,,,,,,,,,,,8,FF,,6,1.652265,,,,,,,,,,,,,,,,,,,,,,,,,,,,,,,,,,97,35,1,0,0,response1disk,9,66,1,2,1,0,0,rectangle,1,2,1,0,0,4,4,"[64,218,207,272,205,126,320,229,107,265,246,185,167,299,206,271,65,150,96,86]",1,2,1,0,0,0,65,65,105,1,,,,,,,,,,,,,,,,,,,,,,,
,,,,,,,,,,,,,,,,,,,,,,,,,,,,,,,,,,,,,,,,,,,5ec1f52f74d69c62f8207c23,5fe192c0c39215c3d6ca4c47,2020-12-22_00h32.00.757,FlowerSimilarity_Experiment,2020.1.2,Win32,60,5fe17d4a51f3a9c1a60f9869,,,,,,,,,,,,,,,,,,,9,FF,,3,3.59446,,,,,,,,,,,,,,,,,,,,,,,,,,,,,,,,,,-41,-102,1,0,0,response5disk,6,67,0,8,1,0,0,rectangle,0,8,1,0,0,4,5,"[64,218,207,272,205,126,320,229,107,265,246,185,167,299,206,271,65,150,96,86]",0,8,1,0,0,0,66,66,117,1,,,,,,,,,,,,,,,,,,,,,,,
,,,,,,,,,,,,,,,,,,,,,,,,,,,,,,,,,,,,,,,,,,,5ec1f52f74d69c62f8207c23,5fe192c0c39215c3d6ca4c47,2020-12-22_00h32.00.757,FlowerSimilarity_Experiment,2020.1.2,Win32,60,5fe17d4a51f3a9c1a60f9869,,,,,,,,,,,,,,,,,,,7,PF,,2,1.636175,,,,,,,,,,,,,,,,,,,,,,,,,,,,,,,,,,-84,-35,1,0,0,response5disk,2,68,2,5,1,0,0,rectangle,2,5,1,0,0,4,2,"[64,218,207,272,205,126,320,229,107,265,246,185,167,299,206,271,65,150,96,86]",2,5,1,0,0,0,67,67,32,1,,,,,,,,,,,,,,,,,,,,,,,
,,,,,,,,,,,,,,,,,,,,,,,,,,,,,,,,,,,,,,,,,,,5ec1f52f74d69c62f8207c23,5fe192c0c39215c3d6ca4c47,2020-12-22_00h32.00.757,FlowerSimilarity_Experiment,2020.1.2,Win32,60,5fe17d4a51f3a9c1a60f9869,,,,,,,,,,,,,,,,,,,2,FF,,2,2.183185,,,,,,,,,,,,,,,,,,,,,,,,,,,,,,,,,,-84,-39,1,0,0,response5disk,4,69,-23,-11,1,0,0,rectangle,-23,-11,1,0,0,4,4,"[64,218,207,272,205,126,320,229,107,265,246,185,167,299,206,271,65,150,96,86]",-23,-11,1,0,0,0,68,68,145,1,,,,,,,,,,,,,,,,,,,,,,,
,,,,,,,,,,,,,,,,,,,,,,,,,,,,,,,,,,,,,,,,,,,5ec1f52f74d69c62f8207c23,5fe192c0c39215c3d6ca4c47,2020-12-22_00h32.00.757,FlowerSimilarity_Experiment,2020.1.2,Win32,60,5fe17d4a51f3a9c1a60f9869,,,,,,,,,,,,,,,,,,,9,PF,,4,1.791725,,,,,,,,,,,,,,,,,,,,,,,,,,,,,,,,,,40,-102,1,0,0,response3disk,1,70,-5,0,1,0,0,rectangle,-5,0,1,0,0,4,4,"[64,218,207,272,205,126,320,229,107,265,246,185,167,299,206,271,65,150,96,86]",-5,0,1,0,0,0,69,69,74,1,,,,,,,,,,,,,,,,,,,,,,,
,,,,,,,,,,,,,,,,,,,,,,,,,,,,,,,,,,,,,,,,,,,5ec1f52f74d69c62f8207c23,5fe192c0c39215c3d6ca4c47,2020-12-22_00h32.00.757,FlowerSimilarity_Experiment,2020.1.2,Win32,60,5fe17d4a51f3a9c1a60f9869,,,,,,,,,,,,,,,,,,,8,FF,,1,1.820015,,,,,,,,,,,,,,,,,,,,,,,,,,,,,,,,,,-87,38,1,0,0,response7disk,8,71,-2,0,1,0,0,rectangle,-2,0,1,0,0,4,5,"[64,218,207,272,205,126,320,229,107,265,246,185,167,299,206,271,65,150,96,86]",-2,0,1,0,0,0,70,70,48,1,,,,,,,,,,,,,,,,,,,,,,,
,,,,,,,,,,,,,,,,,,,,,,,,,,,,,,,,,,,,,,,,,,,5ec1f52f74d69c62f8207c23,5fe192c0c39215c3d6ca4c47,2020-12-22_00h32.00.757,FlowerSimilarity_Experiment,2020.1.2,Win32,60,5fe17d4a51f3a9c1a60f9869,,,,,,,,,,,,,,,,,,,5,PF,,6,1.89015,,,,,,,,,,,,,,,,,,,,,,,,,,,,,,,,,,96,36,1,0,0,response1disk,1,72,-8,-1,1,0,0,rectangle,-8,-1,1,0,0,4,6,"[64,218,207,272,205,126,320,229,107,265,246,185,167,299,206,271,65,150,96,86]",-8,-1,1,0,0,0,71,71,159,1,,,,,,,,,,,,,,,,,,,,,,,
,,,,,,,,,,,,,,,,,,,,,,,,,,,,,,,,,,,,,,,,,,,5ec1f52f74d69c62f8207c23,5fe192c0c39215c3d6ca4c47,2020-12-22_00h32.00.757,FlowerSimilarity_Experiment,2020.1.2,Win32,60,5fe17d4a51f3a9c1a60f9869,,,,,,,,,,,,,,,,,,,8,PF,,3,3.149925,,,,,,,,,,,,,,,,,,,,,,,,,,,,,,,,,,-42,-98,1,0,0,response5disk,2,73,-4,-2,1,0,0,rectangle,-4,-2,1,0,0,4,6,"[64,218,207,272,205,126,320,229,107,265,246,185,167,299,206,271,65,150,96,86]",-4,-2,1,0,0,0,72,72,83,1,,,,,,,,,,,,,,,,,,,,,,,
,,,,,,,,,,,,,,,,,,,,,,,,,,,,,,,,,,,,,,,,,,,5ec1f52f74d69c62f8207c23,5fe192c0c39215c3d6ca4c47,2020-12-22_00h32.00.757,FlowerSimilarity_Experiment,2020.1.2,Win32,60,5fe17d4a51f3a9c1a60f9869,,,,,,,,,,,,,,,,,,,4,FF,,0,1.50783,,,,,,,,,,,,,,,,,,,,,,,,,,,,,,,,,,-35,101,1,0,0,response7disk,4,74,0,5,1,0,0,rectangle,0,5,1,0,0,4,0,"[64,218,207,272,205,126,320,229,107,265,246,185,167,299,206,271,65,150,96,86]",0,5,1,0,0,0,73,73,84,1,,,,,,,,,,,,,,,,,,,,,,,
,,,,,,,,,,,,,,,,,,,,,,,,,,,,,,,,,,,,,,,,,,,5ec1f52f74d69c62f8207c23,5fe192c0c39215c3d6ca4c47,2020-12-22_00h32.00.757,FlowerSimilarity_Experiment,2020.1.2,Win32,60,5fe17d4a51f3a9c1a60f9869,,,,,,,,,,,,,,,,,,,7,PF,,5,2.79551,,,,,,,,,,,,,,,,,,,,,,,,,,,,,,,,,,86,-32,1,0,0,response3disk,6,75,34,-6,1,0,0,rectangle,34,-6,1,0,0,4,1,"[64,218,207,272,205,126,320,229,107,265,246,185,167,299,206,271,65,150,96,86]",34,-6,1,0,0,0,74,74,29,1,,,,,,,,,,,,,,,,,,,,,,,
,,,,,,,,,,,,,,,,,,,,,,,,,,,,,,,,,,,,,,,,,,,5ec1f52f74d69c62f8207c23,5fe192c0c39215c3d6ca4c47,2020-12-22_00h32.00.757,FlowerSimilarity_Experiment,2020.1.2,Win32,60,5fe17d4a51f3a9c1a60f9869,,,,,,,,,,,,,,,,,,,5,FF,,6,1.541845,,,,,,,,,,,,,,,,,,,,,,,,,,,,,,,,,,97,43,1,0,0,response1disk,6,76,-6,-1,1,0,0,rectangle,-6,-1,1,0,0,4,3,"[64,218,207,272,205,126,320,229,107,265,246,185,167,299,206,271,65,150,96,86]",-6,-1,1,0,0,0,75,75,12,1,,,,,,,,,,,,,,,,,,,,,,,
,,,,,,,,,,,,,,,,,,,,,,,,,,,,,,,,,,,,,,,,,,,5ec1f52f74d69c62f8207c23,5fe192c0c39215c3d6ca4c47,2020-12-22_00h32.00.757,FlowerSimilarity_Experiment,2020.1.2,Win32,60,5fe17d4a51f3a9c1a60f9869,,,,,,,,,,,,,,,,,,,2,PF,,0,1.64685,,,,,,,,,,,,,,,,,,,,,,,,,,,,,,,,,,-33,97,1,0,0,response7disk,2,77,-4,13,1,0,0,rectangle,-4,13,1,0,0,4,7,"[64,218,207,272,205,126,320,229,107,265,246,185,167,299,206,271,65,150,96,86]",-4,13,1,0,0,0,76,76,14,1,,,,,,,,,,,,,,,,,,,,,,,
,,,,,,,,,,,,,,,,,,,,,,,,,,,,,,,,,,,,,,,,,,,5ec1f52f74d69c62f8207c23,5fe192c0c39215c3d6ca4c47,2020-12-22_00h32.00.757,FlowerSimilarity_Experiment,2020.1.2,Win32,60,5fe17d4a51f3a9c1a60f9869,,,,,,,,,,,,,,,,,,,7,FF,,4,3.25605,,,,,,,,,,,,,,,,,,,,,,,,,,,,,,,,,,39,-95,1,0,0,response3disk,9,78,4,-7,1,0,0,rectangle,4,-7,1,0,0,4,4,"[64,218,207,272,205,126,320,229,107,265,246,185,167,299,206,271,65,150,96,86]",4,-7,1,0,0,0,77,77,155,1,,,,,,,,,,,,,,,,,,,,,,,
,,,,,,,,,,,,,,,,,,,,,,,,,,,,,,,,,,,,,,,,,,,5ec1f52f74d69c62f8207c23,5fe192c0c39215c3d6ca4c47,2020-12-22_00h32.00.757,FlowerSimilarity_Experiment,2020.1.2,Win32,60,5fe17d4a51f3a9c1a60f9869,,,,,,,,,,,,,,,,,,,7,PF,,4,1.384385,,,,,,,,,,,,,,,,,,,,,,,,,,,,,,,,,,39,-101,1,0,0,response3disk,9,79,-1,0,1,0,0,rectangle,-1,0,1,0,0,4,0,"[64,218,207,272,205,126,320,229,107,265,246,185,167,299,206,271,65,150,96,86]",-1,0,1,0,0,0,78,78,10,1,,,,,,,,,,,,,,,,,,,,,,,
,,,,,,,,,,,,,,,,,,,,,,,,,,,,,,,,,,,,,,,,,,,5ec1f52f74d69c62f8207c23,5fe192c0c39215c3d6ca4c47,2020-12-22_00h32.00.757,FlowerSimilarity_Experiment,2020.1.2,Win32,60,5fe17d4a51f3a9c1a60f9869,,,,,,,,,,,,,,,,,,,6,FF,,0,1.478635,,,,,,,,,,,,,,,,,,,,,,,,,,,,,,,,,,-37,95,1,0,0,response7disk,6,80,3,0,1,0,0,rectangle,3,0,1,0,0,4,4,"[64,218,207,272,205,126,320,229,107,265,246,185,167,299,206,271,65,150,96,86]",3,0,1,0,0,0,79,79,91,1,,,,,,,,,,,,,,,,,,,,,,,
,,,,,,,,,,,,,,,,,,,,,,,,,,,,,,,,,,,,,,,,,,,5ec1f52f74d69c62f8207c23,5fe192c0c39215c3d6ca4c47,2020-12-22_00h32.00.757,FlowerSimilarity_Experiment,2020.1.2,Win32,60,5fe17d4a51f3a9c1a60f9869,,,,,,,,,,,,,,,,,,,3,PF,,0,1.396535,,,,,,,,,,,,,,,,,,,,,,,,,,,,,,,,,,-33,101,1,0,0,response7disk,7,81,-2,-1,1,0,0,rectangle,-2,-1,1,0,0,4,7,"[64,218,207,272,205,126,320,229,107,265,246,185,167,299,206,271,65,150,96,86]",-2,-1,1,0,0,0,80,80,41,1,,,,,,,,,,,,,,,,,,,,,,,
,,,,,,,,,,,,,,,,,,,,,,,,,,,,,,,,,,,,,,,,,,,5ec1f52f74d69c62f8207c23,5fe192c0c39215c3d6ca4c47,2020-12-22_00h32.00.757,FlowerSimilarity_Experiment,2020.1.2,Win32,60,5fe17d4a51f3a9c1a60f9869,,,,,,,,,,,,,,,,,,,8,FF,,3,1.823025,,,,,,,,,,,,,,,,,,,,,,,,,,,,,,,,,,-43,-93,1,0,0,response5disk,3,82,-8,-10,1,0,0,rectangle,-8,-10,1,0,0,4,0,"[64,218,207,272,205,126,320,229,107,265,246,185,167,299,206,271,65,150,96,86]",-8,-10,1,0,0,0,81,81,154,1,,,,,,,,,,,,,,,,,,,,,,,
,,,,,,,,,,,,,,,,,,,,,,,,,,,,,,,,,,,,,,,,,,,5ec1f52f74d69c62f8207c23,5fe192c0c39215c3d6ca4c47,2020-12-22_00h32.00.757,FlowerSimilarity_Experiment,2020.1.2,Win32,60,5fe17d4a51f3a9c1a60f9869,,,,,,,,,,,,,,,,,,,2,FF,,2,2.61927,,,,,,,,,,,,,,,,,,,,,,,,,,,,,,,,,,-81,-40,1,0,0,response5disk,7,83,1,0,1,0,0,rectangle,1,0,1,0,0,4,6,"[64,218,207,272,205,126,320,229,107,265,246,185,167,299,206,271,65,150,96,86]",1,0,1,0,0,0,82,82,63,1,,,,,,,,,,,,,,,,,,,,,,,
,,,,,,,,,,,,,,,,,,,,,,,,,,,,,,,,,,,,,,,,,,,5ec1f52f74d69c62f8207c23,5fe192c0c39215c3d6ca4c47,2020-12-22_00h32.00.757,FlowerSimilarity_Experiment,2020.1.2,Win32,60,5fe17d4a51f3a9c1a60f9869,,,,,,,,,,,,,,,,,,,1,PF,,5,1.8511,,,,,,,,,,,,,,,,,,,,,,,,,,,,,,,,,,84,-39,1,0,0,response3disk,7,84,14,5,1,0,0,rectangle,14,5,1,0,0,4,6,"[64,218,207,272,205,126,320,229,107,265,246,185,167,299,206,271,65,150,96,86]",14,5,1,0,0,0,83,83,150,1,,,,,,,,,,,,,,,,,,,,,,,
,,,,,,,,,,,,,,,,,,,,,,,,,,,,,,,,,,,,,,,,,,,5ec1f52f74d69c62f8207c23,5fe192c0c39215c3d6ca4c47,2020-12-22_00h32.00.757,FlowerSimilarity_Experiment,2020.1.2,Win32,60,5fe17d4a51f3a9c1a60f9869,,,,,,,,,,,,,,,,,,,3,FF,,0,1.626505,,,,,,,,,,,,,,,,,,,,,,,,,,,,,,,,,,-36,101,1,0,0,response7disk,3,85,-4,3,1,0,0,rectangle,-4,3,1,0,0,4,7,"[64,218,207,272,205,126,320,229,107,265,246,185,167,299,206,271,65,150,96,86]",-4,3,1,0,0,0,84,84,68,1,,,,,,,,,,,,,,,,,,,,,,,
,,,,,,,,,,,,,,,,,,,,,,,,,,,,,,,,,,,,,,,,,,,5ec1f52f74d69c62f8207c23,5fe192c0c39215c3d6ca4c47,2020-12-22_00h32.00.757,FlowerSimilarity_Experiment,2020.1.2,Win32,60,5fe17d4a51f3a9c1a60f9869,,,,,,,,,,,,,,,,,,,6,PF,,3,2.74348,,,,,,,,,,,,,,,,,,,,,,,,,,,,,,,,,,-41,-102,1,0,0,response5disk,8,86,0,5,1,0,0,rectangle,98,33,1,0,0,6,6,"[64,218,207,272,205,126,320,229,107,265,246,185,167,299,206,271,65,150,96,86]",-6,0,1,0,0,0,85,85,64,1,response1disk_3,rectangle,,,,,,,,,,,,,,,,,,,,,
,,,,,,,,,,,,,,,,,,,,,,,,,,,,,,,,,,,,,,,,,,,5ec1f52f74d69c62f8207c23,5fe192c0c39215c3d6ca4c47,2020-12-22_00h32.00.757,FlowerSimilarity_Experiment,2020.1.2,Win32,60,5fe17d4a51f3a9c1a60f9869,,,,,,,,,,,,,,,,,,,7,FF,,2,6.388775,,,,,,,,,,,,,,,,,,,,,,,,,,,,,,,,,,-78,-32,1,0,0,response5disk,5,87,-12,0,1,0,0,rectangle,-12,0,1,0,0,6,6,"[64,218,207,272,205,126,320,229,107,265,246,185,167,299,206,271,65,150,96,86]",-12,0,1,0,0,0,86,86,156,1,,,,,,,,,,,,,,,,,,,,,,,
,,,,,,,,,,,,,,,,,,,,,,,,,,,,,,,,,,,,,,,,,,,5ec1f52f74d69c62f8207c23,5fe192c0c39215c3d6ca4c47,2020-12-22_00h32.00.757,FlowerSimilarity_Experiment,2020.1.2,Win32,60,5fe17d4a51f3a9c1a60f9869,,,,,,,,,,,,,,,,,,,7,PF,,4,2.441725,,,,,,,,,,,,,,,,,,,,,,,,,,,,,,,,,,39,-95,1,0,0,response3disk,4,88,16,1,1,0,0,rectangle,16,1,1,0,0,6,7,"[64,218,207,272,205,126,320,229,107,265,246,185,167,299,206,271,65,150,96,86]",16,1,1,0,0,0,87,87,43,1,,,,,,,,,,,,,,,,,,,,,,,
,,,,,,,,,,,,,,,,,,,,,,,,,,,,,,,,,,,,,,,,,,,5ec1f52f74d69c62f8207c23,5fe192c0c39215c3d6ca4c47,2020-12-22_00h32.00.757,FlowerSimilarity_Experiment,2020.1.2,Win32,60,5fe17d4a51f3a9c1a60f9869,,,,,,,,,,,,,,,,,,,5,PF,,6,2.181205,,,,,,,,,,,,,,,,,,,,,,,,,,,,,,,,,,103,40,1,0,0,response1disk,9,89,-5,0,1,0,0,rectangle,-5,0,1,0,0,6,6,"[64,218,207,272,205,126,320,229,107,265,246,185,167,299,206,271,65,150,96,86]",-5,0,1,0,0,0,88,88,136,1,,,,,,,,,,,,,,,,,,,,,,,
,,,,,,,,,,,,,,,,,,,,,,,,,,,,,,,,,,,,,,,,,,,5ec1f52f74d69c62f8207c23,5fe192c0c39215c3d6ca4c47,2020-12-22_00h32.00.757,FlowerSimilarity_Experiment,2020.1.2,Win32,60,5fe17d4a51f3a9c1a60f9869,,,,,,,,,,,,,,,,,,,3,FF,,6,3.532205,,,,,,,,,,,,,,,,,,,,,,,,,,,,,,,,,,99,34,1,0,0,response1disk,9,90,-6,0,1,0,0,rectangle,-6,0,1,0,0,6,4,"[64,218,207,272,205,126,320,229,107,265,246,185,167,299,206,271,65,150,96,86]",-6,0,1,0,0,0,89,89,143,1,,,,,,,,,,,,,,,,,,,,,,,
,,,,,,,,,,,,,,,,,,,,,,,,,,,,,,,,,,,,,,,,,,,5ec1f52f74d69c62f8207c23,5fe192c0c39215c3d6ca4c47,2020-12-22_00h32.00.757,FlowerSimilarity_Experiment,2020.1.2,Win32,60,5fe17d4a51f3a9c1a60f9869,,,,,,,,,,,,,,,,,,,9,PF,,5,4.29455,,,,,,,,,,,,,,,,,,,,,,,,,,,,,,,,,,87,-36,1,0,0,response3disk,4,91,2,-1,1,0,0,rectangle,2,-1,1,0,0,6,6,"[64,218,207,272,205,126,320,229,107,265,246,185,167,299,206,271,65,150,96,86]",2,-1,1,0,0,0,90,90,114,1,,,,,,,,,,,,,,,,,,,,,,,
,,,,,,,,,,,,,,,,,,,,,,,,,,,,,,,,,,,,,,,,,,,5ec1f52f74d69c62f8207c23,5fe192c0c39215c3d6ca4c47,2020-12-22_00h32.00.757,FlowerSimilarity_Experiment,2020.1.2,Win32,60,5fe17d4a51f3a9c1a60f9869,,,,,,,,,,,,,,,,,,,8,FF,,7,4.432695,,,,,,,,,,,,,,,,,,,,,,,,,,,,,,,,,,38,99,1,0,0,response1disk,1,92,-2,2,1,0,0,rectangle,-2,2,1,0,0,6,3,"[64,218,207,272,205,126,320,229,107,265,246,185,167,299,206,271,65,150,96,86]",-2,2,1,0,0,0,91,91,20,1,,,,,,,,,,,,,,,,,,,,,,,
,,,,,,,,,,,,,,,,,,,,,,,,,,,,,,,,,,,,,,,,,,,5ec1f52f74d69c62f8207c23,5fe192c0c39215c3d6ca4c47,2020-12-22_00h32.00.757,FlowerSimilarity_Experiment,2020.1.2,Win32,60,5fe17d4a51f3a9c1a60f9869,,,,,,,,,,,,,,,,,,,4,PF,,4,2.428505,,,,,,,,,,,,,,,,,,,,,,,,,,,,,,,,,,37,-103,1,0,0,response3disk,9,93,-5,10,1,0,0,rectangle,-5,10,1,0,0,6,5,"[64,218,207,272,205,126,320,229,107,265,246,185,167,299,206,271,65,150,96,86]",-5,10,1,0,0,0,92,92,75,1,,,,,,,,,,,,,,,,,,,,,,,
,,,,,,,,,,,,,,,,,,,,,,,,,,,,,,,,,,,,,,,,,,,5ec1f52f74d69c62f8207c23,5fe192c0c39215c3d6ca4c47,2020-12-22_00h32.00.757,FlowerSimilarity_Experiment,2020.1.2,Win32,60,5fe17d4a51f3a9c1a60f9869,,,,,,,,,,,,,,,,,,,3,PF,,6,1.45973,,,,,,,,,,,,,,,,,,,,,,,,,,,,,,,,,,102,39,1,0,0,response1disk,1,94,1,6,1,0,0,rectangle,1,6,1,0,0,6,2,"[64,218,207,272,205,126,320,229,107,265,246,185,167,299,206,271,65,150,96,86]",1,6,1,0,0,0,93,93,96,1,,,,,,,,,,,,,,,,,,,,,,,
,,,,,,,,,,,,,,,,,,,,,,,,,,,,,,,,,,,,,,,,,,,5ec1f52f74d69c62f8207c23,5fe192c0c39215c3d6ca4c47,2020-12-22_00h32.00.757,FlowerSimilarity_Experiment,2020.1.2,Win32,60,5fe17d4a51f3a9c1a60f9869,,,,,,,,,,,,,,,,,,,5,FF,,0,1.235345,,,,,,,,,,,,,,,,,,,,,,,,,,,,,,,,,,-43,103,1,0,0,response7disk,5,95,1,-2,1,0,0,rectangle,1,-2,1,0,0,6,3,"[64,218,207,272,205,126,320,229,107,265,246,185,167,299,206,271,65,150,96,86]",1,-2,1,0,0,0,94,94,19,1,,,,,,,,,,,,,,,,,,,,,,,
,,,,,,,,,,,,,,,,,,,,,,,,,,,,,,,,,,,,,,,,,,,5ec1f52f74d69c62f8207c23,5fe192c0c39215c3d6ca4c47,2020-12-22_00h32.00.757,FlowerSimilarity_Experiment,2020.1.2,Win32,60,5fe17d4a51f3a9c1a60f9869,,,,,,,,,,,,,,,,,,,5,FF,,2,1.58196,,,,,,,,,,,,,,,,,,,,,,,,,,,,,,,,,,-82,-39,1,0,0,response5disk,2,96,-3,3,1,0,0,rectangle,-81,-36,1,0,0,6,2,"[64,218,207,272,205,126,320,229,107,265,246,185,167,299,206,271,65,150,96,86]",2,-4,1,0,0,0,95,95,55,1,response5disk_3,rectangle,,,,,,,,,,,,,,,,,,,,,
,,,,,,,,,,,,,,,,,,,,,,,,,,,,,,,,,,,,,,,,,,,5ec1f52f74d69c62f8207c23,5fe192c0c39215c3d6ca4c47,2020-12-22_00h32.00.757,FlowerSimilarity_Experiment,2020.1.2,Win32,60,5fe17d4a51f3a9c1a60f9869,,,,,,,,,,,,,,,,,,,5,FF,,6,1.714915,,,,,,,,,,,,,,,,,,,,,,,,,,,,,,,,,,92,31,1,0,0,response1disk,4,97,-13,-8,1,0,0,rectangle,-13,-8,1,0,0,6,1,"[64,218,207,272,205,126,320,229,107,265,246,185,167,299,206,271,65,150,96,86]",-13,-8,1,0,0,0,96,96,8,1,,,,,,,,,,,,,,,,,,,,,,,
,,,,,,,,,,,,,,,,,,,,,,,,,,,,,,,,,,,,,,,,,,,5ec1f52f74d69c62f8207c23,5fe192c0c39215c3d6ca4c47,2020-12-22_00h32.00.757,FlowerSimilarity_Experiment,2020.1.2,Win32,60,5fe17d4a51f3a9c1a60f9869,,,,,,,,,,,,,,,,,,,8,PF,,7,1.52719,,,,,,,,,,,,,,,,,,,,,,,,,,,,,,,,,,42,101,1,0,0,response1disk,1,98,10,0,1,0,0,rectangle,10,0,1,0,0,6,3,"[64,218,207,272,205,126,320,229,107,265,246,185,167,299,206,271,65,150,96,86]",10,0,1,0,0,0,97,97,57,1,,,,,,,,,,,,,,,,,,,,,,,
,,,,,,,,,,,,,,,,,,,,,,,,,,,,,,,,,,,,,,,,,,,5ec1f52f74d69c62f8207c23,5fe192c0c39215c3d6ca4c47,2020-12-22_00h32.00.757,FlowerSimilarity_Experiment,2020.1.2,Win32,60,5fe17d4a51f3a9c1a60f9869,,,,,,,,,,,,,,,,,,,1,FF,,7,1.328355,,,,,,,,,,,,,,,,,,,,,,,,,,,,,,,,,,36,100,1,0,0,response1disk,3,99,11,1,1,0,0,rectangle,11,1,1,0,0,6,2,"[64,218,207,272,205,126,320,229,107,265,246,185,167,299,206,271,65,150,96,86]",11,1,1,0,0,0,98,98,99,1,,,,,,,,,,,,,,,,,,,,,,,
,,,,,,,,,,,,,,,,,,,,,,,,,,,,,,,,,,,,,,,,,,,5ec1f52f74d69c62f8207c23,5fe192c0c39215c3d6ca4c47,2020-12-22_00h32.00.757,FlowerSimilarity_Experiment,2020.1.2,Win32,60,5fe17d4a51f3a9c1a60f9869,,,,,,,,,,,,,,,,,,,3,FF,,7,1.38221,,,,,,,,,,,,,,,,,,,,,,,,,,,,,,,,,,40,107,1,0,0,response1disk,1,100,1,-6,1,0,0,rectangle,1,-6,1,0,0,6,0,"[64,218,207,272,205,126,320,229,107,265,246,185,167,299,206,271,65,150,96,86]",1,-6,1,0,0,0,99,99,125,1,,,,,,,,,,,,,,,,,,,,,,,
,,,,,,,,,,,,,,,,,,,,,,,,,,,,,,,,,,,,,,,,,,,5ec1f52f74d69c62f8207c23,5fe192c0c39215c3d6ca4c47,2020-12-22_00h32.00.757,FlowerSimilarity_Experiment,2020.1.2,Win32,60,5fe17d4a51f3a9c1a60f9869,,,,,,,,,,,,,,,,,,,5,FF,,3,2.205725,,,,,,,,,,,,,,,,,,,,,,,,,,,,,,,,,,-40,-99,1,0,0,response5disk,7,101,-2,1,1,0,0,rectangle,-2,1,1,0,0,6,5,"[64,218,207,272,205,126,320,229,107,265,246,185,167,299,206,271,65,150,96,86]",-2,1,1,0,0,0,100,100,7,1,,,,,,,,,,,,,,,,,,,,,,,
,,,,,,,,,,,,,,,,,,,,,,,,,,,,,,,,,,,,,,,,,,,5ec1f52f74d69c62f8207c23,5fe192c0c39215c3d6ca4c47,2020-12-22_00h32.00.757,FlowerSimilarity_Experiment,2020.1.2,Win32,60,5fe17d4a51f3a9c1a60f9869,,,,,,,,,,,,,,,,,,,5,FF,,7,1.75859,,,,,,,,,,,,,,,,,,,,,,,,,,,,,,,,,,43,99,1,0,0,response1disk,1,102,5,3,1,0,0,rectangle,5,3,1,0,0,6,6,"[64,218,207,272,205,126,320,229,107,265,246,185,167,299,206,271,65,150,96,86]",5,3,1,0,0,0,101,101,131,1,,,,,,,,,,,,,,,,,,,,,,,
,,,,,,,,,,,,,,,,,,,,,,,,,,,,,,,,,,,,,,,,,,,5ec1f52f74d69c62f8207c23,5fe192c0c39215c3d6ca4c47,2020-12-22_00h32.00.757,FlowerSimilarity_Experiment,2020.1.2,Win32,60,5fe17d4a51f3a9c1a60f9869,,,,,,,,,,,,,,,,,,,5,FF,,7,3.821205,,,,,,,,,,,,,,,,,,,,,,,,,,,,,,,,,,36,100,1,0,0,response1disk,9,103,8,-8,1,0,0,rectangle,8,-8,1,0,0,6,0,"[64,218,207,272,205,126,320,229,107,265,246,185,167,299,206,271,65,150,96,86]",8,-8,1,0,0,0,102,102,61,1,,,,,,,,,,,,,,,,,,,,,,,
,,,,,,,,,,,,,,,,,,,,,,,,,,,,,,,,,,,,,,,,,,,5ec1f52f74d69c62f8207c23,5fe192c0c39215c3d6ca4c47,2020-12-22_00h32.00.757,FlowerSimilarity_Experiment,2020.1.2,Win32,60,5fe17d4a51f3a9c1a60f9869,,,,,,,,,,,,,,,,,,,8,PF,,7,1.001985,,,,,,,,,,,,,,,,,,,,,,,,,,,,,,,,,,41,99,1,0,0,response1disk,9,104,7,3,1,0,0,rectangle,7,3,1,0,0,6,2,"[64,218,207,272,205,126,320,229,107,265,246,185,167,299,206,271,65,150,96,86]",7,3,1,0,0,0,103,103,42,1,,,,,,,,,,,,,,,,,,,,,,,
,,,,,,,,,,,,,,,,,,,,,,,,,,,,,,,,,,,,,,,,,,,5ec1f52f74d69c62f8207c23,5fe192c0c39215c3d6ca4c47,2020-12-22_00h32.00.757,FlowerSimilarity_Experiment,2020.1.2,Win32,60,5fe17d4a51f3a9c1a60f9869,,,,,,,,,,,,,,,,,,,2,FF,,5,2.29408,,,,,,,,,,,,,,,,,,,,,,,,,,,,,,,,,,84,-37,1,0,0,response3disk,1,105,-8,-1,1,0,0,rectangle,-8,-1,1,0,0,6,5,"[64,218,207,272,205,126,320,229,107,265,246,185,167,299,206,271,65,150,96,86]",-8,-1,1,0,0,0,104,104,85,1,,,,,,,,,,,,,,,,,,,,,,,
,,,,,,,,,,,,,,,,,,,,,,,,,,,,,,,,,,,,,,,,,,,5ec1f52f74d69c62f8207c23,5fe192c0c39215c3d6ca4c47,2020-12-22_00h32.00.757,FlowerSimilarity_Experiment,2020.1.2,Win32,60,5fe17d4a51f3a9c1a60f9869,,,,,,,,,,,,,,,,,,,8,PF,,0,1.490065,,,,,,,,,,,,,,,,,,,,,,,,,,,,,,,,,,-28,102,1,0,0,response7disk,8,106,-3,-2,1,0,0,rectangle,-3,-2,1,0,0,6,3,"[64,218,207,272,205,126,320,229,107,265,246,185,167,299,206,271,65,150,96,86]",-3,-2,1,0,0,0,105,105,153,1,,,,,,,,,,,,,,,,,,,,,,,
,,,,,,,,,,,,,,,,,,,,,,,,,,,,,,,,,,,,,,,,,,,5ec1f52f74d69c62f8207c23,5fe192c0c39215c3d6ca4c47,2020-12-22_00h32.00.757,FlowerSimilarity_Experiment,2020.1.2,Win32,60,5fe17d4a51f3a9c1a60f9869,,,,,,,,,,,,,,,,,,,9,FF,,0,1.0405,,,,,,,,,,,,,,,,,,,,,,,,,,,,,,,,,,-40,111,1,0,0,response7disk,9,107,-5,7,1,0,0,rectangle,-85,30,1,0,0,1,1,"[64,218,207,272,205,126,320,229,107,265,246,185,167,299,206,271,65,150,96,86]",23,-6,1,0,0,0,106,106,17,1,response7disk_3,rectangle,,,,,,,,,,,,,,,,,,,,,
,,,,,,,,,,,,,,,,,,,,,,,,,,,,,,,,,,,,,,,,,,,5ec1f52f74d69c62f8207c23,5fe192c0c39215c3d6ca4c47,2020-12-22_00h32.00.757,FlowerSimilarity_Experiment,2020.1.2,Win32,60,5fe17d4a51f3a9c1a60f9869,,,,,,,,,,,,,,,,,,,9,PF,,5,1.585685,,,,,,,,,,,,,,,,,,,,,,,,,,,,,,,,,,91,-33,1,0,0,response3disk,7,108,9,4,1,0,0,rectangle,9,4,1,0,0,1,4,"[64,218,207,272,205,126,320,229,107,265,246,185,167,299,206,271,65,150,96,86]",9,4,1,0,0,0,107,107,121,1,,,,,,,,,,,,,,,,,,,,,,,
,,,,,,,,,,,,,,,,,,,,,,,,,,,,,,,,,,,,,,,,,,,5ec1f52f74d69c62f8207c23,5fe192c0c39215c3d6ca4c47,2020-12-22_00h32.00.757,FlowerSimilarity_Experiment,2020.1.2,Win32,60,5fe17d4a51f3a9c1a60f9869,,,,,,,,,,,,,,,,,,,8,FF,,3,1.480505,,,,,,,,,,,,,,,,,,,,,,,,,,,,,,,,,,-39,-95,1,0,0,response5disk,5,109,-7,13,1,0,0,rectangle,-7,13,1,0,0,1,5,"[64,218,207,272,205,126,320,229,107,265,246,185,167,299,206,271,65,150,96,86]",-7,13,1,0,0,0,108,108,152,1,,,,,,,,,,,,,,,,,,,,,,,
,,,,,,,,,,,,,,,,,,,,,,,,,,,,,,,,,,,,,,,,,,,5ec1f52f74d69c62f8207c23,5fe192c0c39215c3d6ca4c47,2020-12-22_00h32.00.757,FlowerSimilarity_Experiment,2020.1.2,Win32,60,5fe17d4a51f3a9c1a60f9869,,,,,,,,,,,,,,,,,,,9,PF,,0,1.13832,,,,,,,,,,,,,,,,,,,,,,,,,,,,,,,,,,-36,98,1,0,0,response7disk,9,110,11,5,1,0,0,rectangle,11,5,1,0,0,1,7,"[64,218,207,272,205,126,320,229,107,265,246,185,167,299,206,271,65,150,96,86]",11,5,1,0,0,0,109,109,106,1,,,,,,,,,,,,,,,,,,,,,,,
,,,,,,,,,,,,,,,,,,,,,,,,,,,,,,,,,,,,,,,,,,,5ec1f52f74d69c62f8207c23,5fe192c0c39215c3d6ca4c47,2020-12-22_00h32.00.757,FlowerSimilarity_Experiment,2020.1.2,Win32,60,5fe17d4a51f3a9c1a60f9869,,,,,,,,,,,,,,,,,,,7,FF,,3,2.18261,,,,,,,,,,,,,,,,,,,,,,,,,,,,,,,,,,-38,-96,1,0,0,response5disk,1,111,-2,3,1,0,0,rectangle,-2,3,1,0,0,1,3,"[64,218,207,272,205,126,320,229,107,265,246,185,167,299,206,271,65,150,96,86]",-2,3,1,0,0,0,110,110,132,1,,,,,,,,,,,,,,,,,,,,,,,
,,,,,,,,,,,,,,,,,,,,,,,,,,,,,,,,,,,,,,,,,,,5ec1f52f74d69c62f8207c23,5fe192c0c39215c3d6ca4c47,2020-12-22_00h32.00.757,FlowerSimilarity_Experiment,2020.1.2,Win32,60,5fe17d4a51f3a9c1a60f9869,,,,,,,,,,,,,,,,,,,2,FF,,2,1.26859,,,,,,,,,,,,,,,,,,,,,,,,,,,,,,,,,,-80,-29,1,0,0,response5disk,8,112,1,-4,1,0,0,rectangle,1,-4,1,0,0,1,1,"[64,218,207,272,205,126,320,229,107,265,246,185,167,299,206,271,65,150,96,86]",1,-4,1,0,0,0,111,111,62,1,,,,,,,,,,,,,,,,,,,,,,,
,,,,,,,,,,,,,,,,,,,,,,,,,,,,,,,,,,,,,,,,,,,5ec1f52f74d69c62f8207c23,5fe192c0c39215c3d6ca4c47,2020-12-22_00h32.00.757,FlowerSimilarity_Experiment,2020.1.2,Win32,60,5fe17d4a51f3a9c1a60f9869,,,,,,,,,,,,,,,,,,,2,FF,,6,1.397985,,,,,,,,,,,,,,,,,,,,,,,,,,,,,,,,,,103,39,1,0,0,response1disk,9,113,-11,-1,1,0,0,rectangle,-11,-1,1,0,0,1,3,"[64,218,207,272,205,126,320,229,107,265,246,185,167,299,206,271,65,150,96,86]",-11,-1,1,0,0,0,112,112,72,1,,,,,,,,,,,,,,,,,,,,,,,
,,,,,,,,,,,,,,,,,,,,,,,,,,,,,,,,,,,,,,,,,,,5ec1f52f74d69c62f8207c23,5fe192c0c39215c3d6ca4c47,2020-12-22_00h32.00.757,FlowerSimilarity_Experiment,2020.1.2,Win32,60,5fe17d4a51f3a9c1a60f9869,,,,,,,,,,,,,,,,,,,6,PF,,6,1.27573,,,,,,,,,,,,,,,,,,,,,,,,,,,,,,,,,,96,38,1,0,0,response1disk,2,114,-8,-4,1,0,0,rectangle,-8,-4,1,0,0,1,7,"[64,218,207,272,205,126,320,229,107,265,246,185,167,299,206,271,65,150,96,86]",-8,-4,1,0,0,0,113,113,130,1,,,,,,,,,,,,,,,,,,,,,,,
,,,,,,,,,,,,,,,,,,,,,,,,,,,,,,,,,,,,,,,,,,,5ec1f52f74d69c62f8207c23,5fe192c0c39215c3d6ca4c47,2020-12-22_00h32.00.757,FlowerSimilarity_Experiment,2020.1.2,Win32,60,5fe17d4a51f3a9c1a60f9869,,,,,,,,,,,,,,,,,,,1,FF,,3,2.246435,,,,,,,,,,,,,,,,,,,,,,,,,,,,,,,,,,-37,-97,1,0,0,response5disk,4,115,-1,-3,1,0,0,rectangle,-1,-3,1,0,0,1,1,"[64,218,207,272,205,126,320,229,107,265,246,185,167,299,206,271,65,150,96,86]",-1,-3,1,0,0,0,114,114,135,1,,,,,,,,,,,,,,,,,,,,,,,
,,,,,,,,,,,,,,,,,,,,,,,,,,,,,,,,,,,,,,,,,,,5ec1f52f74d69c62f8207c23,5fe192c0c39215c3d6ca4c47,2020-12-22_00h32.00.757,FlowerSimilarity_Experiment,2020.1.2,Win32,60,5fe17d4a51f3a9c1a60f9869,,,,,,,,,,,,,,,,,,,9,PF,,6,2.537585,,,,,,,,,,,,,,,,,,,,,,,,,,,,,,,,,,97,33,1,0,0,response1disk,3,116,-2,-2,1,0,0,rectangle,-2,-2,1,0,0,1,2,"[64,218,207,272,205,126,320,229,107,265,246,185,167,299,206,271,65,150,96,86]",-2,-2,1,0,0,0,115,115,119,1,,,,,,,,,,,,,,,,,,,,,,,
,,,,,,,,,,,,,,,,,,,,,,,,,,,,,,,,,,,,,,,,,,,5ec1f52f74d69c62f8207c23,5fe192c0c39215c3d6ca4c47,2020-12-22_00h32.00.757,FlowerSimilarity_Experiment,2020.1.2,Win32,60,5fe17d4a51f3a9c1a60f9869,,,,,,,,,,,,,,,,,,,7,PF,,1,1.429375,,,,,,,,,,,,,,,,,,,,,,,,,,,,,,,,,,-89,30,1,0,0,response7disk,8,117,-11,-1,1,0,0,rectangle,-11,-1,1,0,0,1,4,"[64,218,207,272,205,126,320,229,107,265,246,185,167,299,206,271,65,150,96,86]",-11,-1,1,0,0,0,116,116,140,1,,,,,,,,,,,,,,,,,,,,,,,
,,,,,,,,,,,,,,,,,,,,,,,,,,,,,,,,,,,,,,,,,,,5ec1f52f74d69c62f8207c23,5fe192c0c39215c3d6ca4c47,2020-12-22_00h32.00.757,FlowerSimilarity_Experiment,2020.1.2,Win32,60,5fe17d4a51f3a9c1a60f9869,,,,,,,,,,,,,,,,,,,5,PF,,0,1.57114,,,,,,,,,,,,,,,,,,,,,,,,,,,,,,,,,,-35,92,1,0,0,response7disk,8,118,-3,-2,1,0,0,rectangle,-3,-2,1,0,0,1,6,"[64,218,207,272,205,126,320,229,107,265,246,185,167,299,206,271,65,150,96,86]",-3,-2,1,0,0,0,117,117,149,1,,,,,,,,,,,,,,,,,,,,,,,
,,,,,,,,,,,,,,,,,,,,,,,,,,,,,,,,,,,,,,,,,,,5ec1f52f74d69c62f8207c23,5fe192c0c39215c3d6ca4c47,2020-12-22_00h32.00.757,FlowerSimilarity_Experiment,2020.1.2,Win32,60,5fe17d4a51f3a9c1a60f9869,,,,,,,,,,,,,,,,,,,1,PF,,4,1.906025,,,,,,,,,,,,,,,,,,,,,,,,,,,,,,,,,,33,-90,1,0,0,response3disk,6,119,2,9,1,0,0,rectangle,2,9,1,0,0,1,0,"[64,218,207,272,205,126,320,229,107,265,246,185,167,299,206,271,65,150,96,86]",2,9,1,0,0,0,118,118,144,1,,,,,,,,,,,,,,,,,,,,,,,
,,,,,,,,,,,,,,,,,,,,,,,,,,,,,,,,,,,,,,,,,,,5ec1f52f74d69c62f8207c23,5fe192c0c39215c3d6ca4c47,2020-12-22_00h32.00.757,FlowerSimilarity_Experiment,2020.1.2,Win32,60,5fe17d4a51f3a9c1a60f9869,,,,,,,,,,,,,,,,,,,1,FF,,1,1.732955,,,,,,,,,,,,,,,,,,,,,,,,,,,,,,,,,,-79,34,1,0,0,response7disk,6,120,-1,3,1,0,0,rectangle,-1,3,1,0,0,1,3,"[64,218,207,272,205,126,320,229,107,265,246,185,167,299,206,271,65,150,96,86]",-1,3,1,0,0,0,119,119,58,1,,,,,,,,,,,,,,,,,,,,,,,
,,,,,,,,,,,,,,,,,,,,,,,,,,,,,,,,,,,,,,,,,,,5ec1f52f74d69c62f8207c23,5fe192c0c39215c3d6ca4c47,2020-12-22_00h32.00.757,FlowerSimilarity_Experiment,2020.1.2,Win32,60,5fe17d4a51f3a9c1a60f9869,,,,,,,,,,,,,,,,,,,1,PF,,4,1.901645,,,,,,,,,,,,,,,,,,,,,,,,,,,,,,,,,,38,-96,1,0,0,response3disk,4,121,-3,-2,1,0,0,rectangle,-3,-2,1,0,0,1,1,"[64,218,207,272,205,126,320,229,107,265,246,185,167,299,206,271,65,150,96,86]",-3,-2,1,0,0,0,120,120,139,1,,,,,,,,,,,,,,,,,,,,,,,
,,,,,,,,,,,,,,,,,,,,,,,,,,,,,,,,,,,,,,,,,,,5ec1f52f74d69c62f8207c23,5fe192c0c39215c3d6ca4c47,2020-12-22_00h32.00.757,FlowerSimilarity_Experiment,2020.1.2,Win32,60,5fe17d4a51f3a9c1a60f9869,,,,,,,,,,,,,,,,,,,5,FF,,2,2.30093,,,,,,,,,,,,,,,,,,,,,,,,,,,,,,,,,,-81,-43,1,0,0,response5disk,3,122,0,-2,1,0,0,rectangle,0,-2,1,0,0,1,0,"[64,218,207,272,205,126,320,229,107,265,246,185,167,299,206,271,65,150,96,86]",0,-2,1,0,0,0,121,121,25,1,,,,,,,,,,,,,,,,,,,,,,,
,,,,,,,,,,,,,,,,,,,,,,,,,,,,,,,,,,,,,,,,,,,5ec1f52f74d69c62f8207c23,5fe192c0c39215c3d6ca4c47,2020-12-22_00h32.00.757,FlowerSimilarity_Experiment,2020.1.2,Win32,60,5fe17d4a51f3a9c1a60f9869,,,,,,,,,,,,,,,,,,,8,FF,,6,2.011205,,,,,,,,,,,,,,,,,,,,,,,,,,,,,,,,,,98,30,1,0,0,response1disk,4,123,-11,-2,1,0,0,rectangle,-11,-2,1,0,0,1,2,"[64,218,207,272,205,126,320,229,107,265,246,185,167,299,206,271,65,150,96,86]",-11,-2,1,0,0,0,122,122,88,1,,,,,,,,,,,,,,,,,,,,,,,
,,,,,,,,,,,,,,,,,,,,,,,,,,,,,,,,,,,,,,,,,,,5ec1f52f74d69c62f8207c23,5fe192c0c39215c3d6ca4c47,2020-12-22_00h32.00.757,FlowerSimilarity_Experiment,2020.1.2,Win32,60,5fe17d4a51f3a9c1a60f9869,,,,,,,,,,,,,,,,,,,5,PF,,3,1.740735,,,,,,,,,,,,,,,,,,,,,,,,,,,,,,,,,,-41,-99,1,0,0,response5disk,2,124,3,-4,1,0,0,rectangle,3,-4,1,0,0,1,5,"[64,218,207,272,205,126,320,229,107,265,246,185,167,299,206,271,65,150,96,86]",3,-4,1,0,0,0,123,123,129,1,,,,,,,,,,,,,,,,,,,,,,,
,,,,,,,,,,,,,,,,,,,,,,,,,,,,,,,,,,,,,,,,,,,5ec1f52f74d69c62f8207c23,5fe192c0c39215c3d6ca4c47,2020-12-22_00h32.00.757,FlowerSimilarity_Experiment,2020.1.2,Win32,60,5fe17d4a51f3a9c1a60f9869,,,,,,,,,,,,,,,,,,,2,FF,,2,2.275525,,,,,,,,,,,,,,,,,,,,,,,,,,,,,,,,,,-81,-29,1,0,0,response5disk,3,125,-7,-2,1,0,0,rectangle,-7,-2,1,0,0,1,0,"[64,218,207,272,205,126,320,229,107,265,246,185,167,299,206,271,65,150,96,86]",-7,-2,1,0,0,0,124,124,104,1,,,,,,,,,,,,,,,,,,,,,,,
,,,,,,,,,,,,,,,,,,,,,,,,,,,,,,,,,,,,,,,,,,,5ec1f52f74d69c62f8207c23,5fe192c0c39215c3d6ca4c47,2020-12-22_00h32.00.757,FlowerSimilarity_Experiment,2020.1.2,Win32,60,5fe17d4a51f3a9c1a60f9869,,,,,,,,,,,,,,,,,,,9,FF,,4,1.589465,,,,,,,,,,,,,,,,,,,,,,,,,,,,,,,,,,35,-93,1,0,0,response3disk,4,126,0,7,1,0,0,rectangle,-42,-103,1,0,0,3,3,"[64,218,207,272,205,126,320,229,107,265,246,185,167,299,206,271,65,150,96,86]",-13,-4,1,0,0,0,125,125,60,1,response5disk_3,rectangle,,,,,,,,,,,,,,,,,,,,,
,,,,,,,,,,,,,,,,,,,,,,,,,,,,,,,,,,,,,,,,,,,5ec1f52f74d69c62f8207c23,5fe192c0c39215c3d6ca4c47,2020-12-22_00h32.00.757,FlowerSimilarity_Experiment,2020.1.2,Win32,60,5fe17d4a51f3a9c1a60f9869,,,,,,,,,,,,,,,,,,,6,FF,,1,1.749925,,,,,,,,,,,,,,,,,,,,,,,,,,,,,,,,,,-79,27,1,0,0,response7disk,1,127,-9,-5,1,0,0,rectangle,-9,-5,1,0,0,3,5,"[64,218,207,272,205,126,320,229,107,265,246,185,167,299,206,271,65,150,96,86]",-9,-5,1,0,0,0,126,126,5,1,,,,,,,,,,,,,,,,,,,,,,,
,,,,,,,,,,,,,,,,,,,,,,,,,,,,,,,,,,,,,,,,,,,5ec1f52f74d69c62f8207c23,5fe192c0c39215c3d6ca4c47,2020-12-22_00h32.00.757,FlowerSimilarity_Experiment,2020.1.2,Win32,60,5fe17d4a51f3a9c1a60f9869,,,,,,,,,,,,,,,,,,,1,PF,,6,1.73192,,,,,,,,,,,,,,,,,,,,,,,,,,,,,,,,,,94,44,1,0,0,response1disk,5,128,-5,-4,1,0,0,rectangle,-5,-4,1,0,0,3,3,"[64,218,207,272,205,126,320,229,107,265,246,185,167,299,206,271,65,150,96,86]",-5,-4,1,0,0,0,127,127,28,1,,,,,,,,,,,,,,,,,,,,,,,
,,,,,,,,,,,,,,,,,,,,,,,,,,,,,,,,,,,,,,,,,,,5ec1f52f74d69c62f8207c23,5fe192c0c39215c3d6ca4c47,2020-12-22_00h32.00.757,FlowerSimilarity_Experiment,2020.1.2,Win32,60,5fe17d4a51f3a9c1a60f9869,,,,,,,,,,,,,,,,,,,1,PF,,2,1.91295,,,,,,,,,,,,,,,,,,,,,,,,,,,,,,,,,,-81,-36,1,0,0,response5disk,2,129,-1,-10,1,0,0,rectangle,-1,-10,1,0,0,3,2,"[64,218,207,272,205,126,320,229,107,265,246,185,167,299,206,271,65,150,96,86]",-1,-10,1,0,0,0,128,128,24,1,,,,,,,,,,,,,,,,,,,,,,,
,,,,,,,,,,,,,,,,,,,,,,,,,,,,,,,,,,,,,,,,,,,5ec1f52f74d69c62f8207c23,5fe192c0c39215c3d6ca4c47,2020-12-22_00h32.00.757,FlowerSimilarity_Experiment,2020.1.2,Win32,60,5fe17d4a51f3a9c1a60f9869,,,,,,,,,,,,,,,,,,,4,PF,,2,2.72039,,,,,,,,,,,,,,,,,,,,,,,,,,,,,,,,,,-84,-35,1,0,0,response5disk,4,130,-5,6,1,0,0,rectangle,-5,6,1,0,0,3,4,"[64,218,207,272,205,126,320,229,107,265,246,185,167,299,206,271,65,150,96,86]",-5,6,1,0,0,0,129,129,70,1,,,,,,,,,,,,,,,,,,,,,,,
,,,,,,,,,,,,,,,,,,,,,,,,,,,,,,,,,,,,,,,,,,,5ec1f52f74d69c62f8207c23,5fe192c0c39215c3d6ca4c47,2020-12-22_00h32.00.757,FlowerSimilarity_Experiment,2020.1.2,Win32,60,5fe17d4a51f3a9c1a60f9869,,,,,,,,,,,,,,,,,,,2,PF,,2,1.433135,,,,,,,,,,,,,,,,,,,,,,,,,,,,,,,,,,-83,-33,1,0,0,response5disk,4,131,-1,-5,1,0,0,rectangle,-1,-5,1,0,0,3,0,"[64,218,207,272,205,126,320,229,107,265,246,185,167,299,206,271,65,150,96,86]",-1,-5,1,0,0,0,130,130,127,1,,,,,,,,,,,,,,,,,,,,,,,
,,,,,,,,,,,,,,,,,,,,,,,,,,,,,,,,,,,,,,,,,,,5ec1f52f74d69c62f8207c23,5fe192c0c39215c3d6ca4c47,2020-12-22_00h32.00.757,FlowerSimilarity_Experiment,2020.1.2,Win32,60,5fe17d4a51f3a9c1a60f9869,,,,,,,,,,,,,,,,,,,7,PF,,0,1.178205,,,,,,,,,,,,,,,,,,,,,,,,,,,,,,,,,,-41,101,1,0,0,response7disk,7,132,-14,1,1,0,0,rectangle,-14,1,1,0,0,3,5,"[64,218,207,272,205,126,320,229,107,265,246,185,167,299,206,271,65,150,96,86]",-14,1,1,0,0,0,131,131,51,1,,,,,,,,,,,,,,,,,,,,,,,
,,,,,,,,,,,,,,,,,,,,,,,,,,,,,,,,,,,,,,,,,,,5ec1f52f74d69c62f8207c23,5fe192c0c39215c3d6ca4c47,2020-12-22_00h32.00.757,FlowerSimilarity_Experiment,2020.1.2,Win32,60,5fe17d4a51f3a9c1a60f9869,,,,,,,,,,,,,,,,,,,1,FF,,5,1.9372,,,,,,,,,,,,,,,,,,,,,,,,,,,,,,,,,,84,-40,1,0,0,response3disk,7,133,-5,5,1,0,0,rectangle,-5,5,1,0,0,3,7,"[64,218,207,272,205,126,320,229,107,265,246,185,167,299,206,271,65,150,96,86]",-5,5,1,0,0,0,132,132,137,1,,,,,,,,,,,,,,,,,,,,,,,
,,,,,,,,,,,,,,,,,,,,,,,,,,,,,,,,,,,,,,,,,,,5ec1f52f74d69c62f8207c23,5fe192c0c39215c3d6ca4c47,2020-12-22_00h32.00.757,FlowerSimilarity_Experiment,2020.1.2,Win32,60,5fe17d4a51f3a9c1a60f9869,,,,,,,,,,,,,,,,,,,1,PF,,2,1.822375,,,,,,,,,,,,,,,,,,,,,,,,,,,,,,,,,,-86,-36,1,0,0,response5disk,9,134,9,10,1,0,0,rectangle,9,10,1,0,0,3,3,"[64,218,207,272,205,126,320,229,107,265,246,185,167,299,206,271,65,150,96,86]",9,10,1,0,0,0,133,133,15,1,,,,,,,,,,,,,,,,,,,,,,,
,,,,,,,,,,,,,,,,,,,,,,,,,,,,,,,,,,,,,,,,,,,5ec1f52f74d69c62f8207c23,5fe192c0c39215c3d6ca4c47,2020-12-22_00h32.00.757,FlowerSimilarity_Experiment,2020.1.2,Win32,60,5fe17d4a51f3a9c1a60f9869,,,,,,,,,,,,,,,,,,,6,FF,,5,2.81877,,,,,,,,,,,,,,,,,,,,,,,,,,,,,,,,,,86,-41,1,0,0,response3disk,5,135,1,-5,1,0,0,rectangle,1,-5,1,0,0,3,5,"[64,218,207,272,205,126,320,229,107,265,246,185,167,299,206,271,65,150,96,86]",1,-5,1,0,0,0,134,134,126,1,,,,,,,,,,,,,,,,,,,,,,,
,,,,,,,,,,,,,,,,,,,,,,,,,,,,,,,,,,,,,,,,,,,5ec1f52f74d69c62f8207c23,5fe192c0c39215c3d6ca4c47,2020-12-22_00h32.00.757,FlowerSimilarity_Experiment,2020.1.2,Win32,60,5fe17d4a51f3a9c1a60f9869,,,,,,,,,,,,,,,,,,,6,FF,,1,1.478065,,,,,,,,,,,,,,,,,,,,,,,,,,,,,,,,,,-81,33,1,0,0,response7disk,9,136,-9,0,1,0,0,rectangle,-9,0,1,0,0,3,0,"[64,218,207,272,205,126,320,229,107,265,246,185,167,299,206,271,65,150,96,86]",-9,0,1,0,0,0,135,135,160,1,,,,,,,,,,,,,,,,,,,,,,,
,,,,,,,,,,,,,,,,,,,,,,,,,,,,,,,,,,,,,,,,,,,5ec1f52f74d69c62f8207c23,5fe192c0c39215c3d6ca4c47,2020-12-22_00h32.00.757,FlowerSimilarity_Experiment,2020.1.2,Win32,60,5fe17d4a51f3a9c1a60f9869,,,,,,,,,,,,,,,,,,,6,FF,,5,2.642985,,,,,,,,,,,,,,,,,,,,,,,,,,,,,,,,,,81,-32,1,0,0,response3disk,2,137,2,-3,1,0,0,rectangle,2,-3,1,0,0,3,5,"[64,218,207,272,205,126,320,229,107,265,246,185,167,299,206,271,65,150,96,86]",2,-3,1,0,0,0,136,136,112,1,,,,,,,,,,,,,,,,,,,,,,,
,,,,,,,,,,,,,,,,,,,,,,,,,,,,,,,,,,,,,,,,,,,5ec1f52f74d69c62f8207c23,5fe192c0c39215c3d6ca4c47,2020-12-22_00h32.00.757,FlowerSimilarity_Experiment,2020.1.2,Win32,60,5fe17d4a51f3a9c1a60f9869,,,,,,,,,,,,,,,,,,,4,PF,,0,1.670595,,,,,,,,,,,,,,,,,,,,,,,,,,,,,,,,,,-29,99,1,0,0,response7disk,2,138,6,-1,1,0,0,rectangle,6,-1,1,0,0,3,2,"[64,218,207,272,205,126,320,229,107,265,246,185,167,299,206,271,65,150,96,86]",6,-1,1,0,0,0,137,137,108,1,,,,,,,,,,,,,,,,,,,,,,,
,,,,,,,,,,,,,,,,,,,,,,,,,,,,,,,,,,,,,,,,,,,5ec1f52f74d69c62f8207c23,5fe192c0c39215c3d6ca4c47,2020-12-22_00h32.00.757,FlowerSimilarity_Experiment,2020.1.2,Win32,60,5fe17d4a51f3a9c1a60f9869,,,,,,,,,,,,,,,,,,,1,PF,,3,2.115485,,,,,,,,,,,,,,,,,,,,,,,,,,,,,,,,,,-31,-88,1,0,0,response5disk,1,139,-5,-7,1,0,0,rectangle,-5,-7,1,0,0,3,4,"[64,218,207,272,205,126,320,229,107,265,246,185,167,299,206,271,65,150,96,86]",-5,-7,1,0,0,0,138,138,76,1,,,,,,,,,,,,,,,,,,,,,,,
,,,,,,,,,,,,,,,,,,,,,,,,,,,,,,,,,,,,,,,,,,,5ec1f52f74d69c62f8207c23,5fe192c0c39215c3d6ca4c47,2020-12-22_00h32.00.757,FlowerSimilarity_Experiment,2020.1.2,Win32,60,5fe17d4a51f3a9c1a60f9869,,,,,,,,,,,,,,,,,,,1,FF,,6,2.34886,,,,,,,,,,,,,,,,,,,,,,,,,,,,,,,,,,100,41,1,0,0,response1disk,5,140,-6,10,1,0,0,rectangle,-6,10,1,0,0,3,0,"[64,218,207,272,205,126,320,229,107,265,246,185,167,299,206,271,65,150,96,86]",-6,10,1,0,0,0,139,139,82,1,,,,,,,,,,,,,,,,,,,,,,,
,,,,,,,,,,,,,,,,,,,,,,,,,,,,,,,,,,,,,,,,,,,5ec1f52f74d69c62f8207c23,5fe192c0c39215c3d6ca4c47,2020-12-22_00h32.00.757,FlowerSimilarity_Experiment,2020.1.2,Win32,60,5fe17d4a51f3a9c1a60f9869,,,,,,,,,,,,,,,,,,,4,PF,,6,1.85725,,,,,,,,,,,,,,,,,,,,,,,,,,,,,,,,,,100,38,1,0,0,response1disk,1,141,-2,8,1,0,0,rectangle,-2,8,1,0,0,3,1,"[64,218,207,272,205,126,320,229,107,265,246,185,167,299,206,271,65,150,96,86]",-2,8,1,0,0,0,140,140,115,1,,,,,,,,,,,,,,,,,,,,,,,
,,,,,,,,,,,,,,,,,,,,,,,,,,,,,,,,,,,,,,,,,,,5ec1f52f74d69c62f8207c23,5fe192c0c39215c3d6ca4c47,2020-12-22_00h32.00.757,FlowerSimilarity_Experiment,2020.1.2,Win32,60,5fe17d4a51f3a9c1a60f9869,,,,,,,,,,,,,,,,,,,1,PF,,7,1.96961,,,,,,,,,,,,,,,,,,,,,,,,,,,,,,,,,,37,94,1,0,0,response1disk,3,142,4,-9,1,0,0,rectangle,4,-9,1,0,0,3,3,"[64,218,207,272,205,126,320,229,107,265,246,185,167,299,206,271,65,150,96,86]",4,-9,1,0,0,0,141,141,1,1,,,,,,,,,,,,,,,,,,,,,,,
,,,,,,,,,,,,,,,,,,,,,,,,,,,,,,,,,,,,,,,,,,,5ec1f52f74d69c62f8207c23,5fe192c0c39215c3d6ca4c47,2020-12-22_00h32.00.757,FlowerSimilarity_Experiment,2020.1.2,Win32,60,5fe17d4a51f3a9c1a60f9869,,,,,,,,,,,,,,,,,,,6,PF,,7,1.5141,,,,,,,,,,,,,,,,,,,,,,,,,,,,,,,,,,39,101,1,0,0,response1disk,5,143,1,-9,1,0,0,rectangle,1,-9,1,0,0,3,3,"[64,218,207,272,205,126,320,229,107,265,246,185,167,299,206,271,65,150,96,86]",1,-9,1,0,0,0,142,142,59,1,,,,,,,,,,,,,,,,,,,,,,,
,,,,,,,,,,,,,,,,,,,,,,,,,,,,,,,,,,,,,,,,,,,5ec1f52f74d69c62f8207c23,5fe192c0c39215c3d6ca4c47,2020-12-22_00h32.00.757,FlowerSimilarity_Experiment,2020.1.2,Win32,60,5fe17d4a51f3a9c1a60f9869,,,,,,,,,,,,,,,,,,,5,PF,,3,1.468855,,,,,,,,,,,,,,,,,,,,,,,,,,,,,,,,,,-43,-97,1,0,0,response5disk,7,144,10,1,1,0,0,rectangle,10,1,1,0,0,3,6,"[64,218,207,272,205,126,320,229,107,265,246,185,167,299,206,271,65,150,96,86]",10,1,1,0,0,0,143,143,146,1,,,,,,,,,,,,,,,,,,,,,,,
,,,,,,,,,,,,,,,,,,,,,,,,,,,,,,,,,,,,,,,,,,,5ec1f52f74d69c62f8207c23,5fe192c0c39215c3d6ca4c47,2020-12-22_00h32.00.757,FlowerSimilarity_Experiment,2020.1.2,Win32,60,5fe17d4a51f3a9c1a60f9869,,,,,,,,,,,,,,,,,,,1,PF,,6,4.950785,,,,,,,,,,,,,,,,,,,,,,,,,,,,,,,,,,98,34,1,0,0,response1disk,8,145,6,-5,1,0,0,rectangle,6,-5,1,0,0,3,0,"[64,218,207,272,205,126,320,229,107,265,246,185,167,299,206,271,65,150,96,86]",6,-5,1,0,0,0,144,144,65,1,,,,,,,,,,,,,,,,,,,,,,,
,,,,,,,,,,,,,,,,,,,,,,,,,,,,,,,,,,,,,,,,,,,5ec1f52f74d69c62f8207c23,5fe192c0c39215c3d6ca4c47,2020-12-22_00h32.00.757,FlowerSimilarity_Experiment,2020.1.2,Win32,60,5fe17d4a51f3a9c1a60f9869,,,,,,,,,,,,,,,,,,,7,FF,,2,2.382535,,,,,,,,,,,,,,,,,,,,,,,,,,,,,,,,,,-85,-40,1,0,0,response5disk,2,146,-4,2,1,0,0,rectangle,-4,2,1,0,0,3,7,"[64,218,207,272,205,126,320,229,107,265,246,185,167,299,206,271,65,150,96,86]",-4,2,1,0,0,0,145,145,138,1,,,,,,,,,,,,,,,,,,,,,,,
,,,,,,,,,,,,,,,,,,,,,,,,,,,,,,,,,,,,,,,,,,,5ec1f52f74d69c62f8207c23,5fe192c0c39215c3d6ca4c47,2020-12-22_00h32.00.757,FlowerSimilarity_Experiment,2020.1.2,Win32,60,5fe17d4a51f3a9c1a60f9869,,,,,,,,,,,,,,,,,,,7,FF,,0,1.40301,,,,,,,,,,,,,,,,,,,,,,,,,,,,,,,,,,-34,90,1,0,0,response7disk,3,147,-11,-4,1,0,0,rectangle,-11,-4,1,0,0,3,5,"[64,218,207,272,205,126,320,229,107,265,246,185,167,299,206,271,65,150,96,86]",-11,-4,1,0,0,0,146,146,73,1,,,,,,,,,,,,,,,,,,,,,,,
,,,,,,,,,,,,,,,,,,,,,,,,,,,,,,,,,,,,,,,,,,,5ec1f52f74d69c62f8207c23,5fe192c0c39215c3d6ca4c47,2020-12-22_00h32.00.757,FlowerSimilarity_Experiment,2020.1.2,Win32,60,5fe17d4a51f3a9c1a60f9869,,,,,,,,,,,,,,,,,,,6,PF,,0,1.541855,,,,,,,,,,,,,,,,,,,,,,,,,,,,,,,,,,-42,104,1,0,0,response7disk,7,148,-7,3,1,0,0,rectangle,-7,3,1,0,0,3,7,"[64,218,207,272,205,126,320,229,107,265,246,185,167,299,206,271,65,150,96,86]",-7,3,1,0,0,0,147,147,50,1,,,,,,,,,,,,,,,,,,,,,,,
,,,,,,,,,,,,,,,,,,,,,,,,,,,,,,,,,,,,,,,,,,,5ec1f52f74d69c62f8207c23,5fe192c0c39215c3d6ca4c47,2020-12-22_00h32.00.757,FlowerSimilarity_Experiment,2020.1.2,Win32,60,5fe17d4a51f3a9c1a60f9869,,,,,,,,,,,,,,,,,,,8,PF,,6,2.950365,,,,,,,,,,,,,,,,,,,,,,,,,,,,,,,,,,94,37,1,0,0,response1disk,4,149,-1,-3,1,0,0,rectangle,-1,-3,1,0,0,3,3,"[64,218,207,272,205,126,320,229,107,265,246,185,167,299,206,271,65,150,96,86]",-1,-3,1,0,0,0,148,148,78,1,,,,,,,,,,,,,,,,,,,,,,,
,,,,,,,,,,,,,,,,,,,,,,,,,,,,,,,,,,,,,,,,,,,5ec1f52f74d69c62f8207c23,5fe192c0c39215c3d6ca4c47,2020-12-22_00h32.00.757,FlowerSimilarity_Experiment,2020.1.2,Win32,60,5fe17d4a51f3a9c1a60f9869,,,,,,,,,,,,,,,,,,,7,FF,,3,1.530795,,,,,,,,,,,,,,,,,,,,,,,,,,,,,,,,,,-35,-100,1,0,0,response5disk,8,150,11,-1,1,0,0,rectangle,-84,35,1,0,0,1,1,"[64,218,207,272,205,126,320,229,107,265,246,185,167,299,206,271,65,150,96,86]",-7,3,1,0,0,0,149,149,97,1,response7disk_3,rectangle,,,,,,,,,,,,,,,,,,,,,
,,,,,,,,,,,,,,,,,,,,,,,,,,,,,,,,,,,,,,,,,,,5ec1f52f74d69c62f8207c23,5fe192c0c39215c3d6ca4c47,2020-12-22_00h32.00.757,FlowerSimilarity_Experiment,2020.1.2,Win32,60,5fe17d4a51f3a9c1a60f9869,,,,,,,,,,,,,,,,,,,1,FF,,6,5.51107,,,,,,,,,,,,,,,,,,,,,,,,,,,,,,,,,,99,31,1,0,0,response1disk,2,151,2,6,1,0,0,rectangle,2,6,1,0,0,1,6,"[64,218,207,272,205,126,320,229,107,265,246,185,167,299,206,271,65,150,96,86]",2,6,1,0,0,0,150,150,2,1,,,,,,,,,,,,,,,,,,,,,,,
,,,,,,,,,,,,,,,,,,,,,,,,,,,,,,,,,,,,,,,,,,,5ec1f52f74d69c62f8207c23,5fe192c0c39215c3d6ca4c47,2020-12-22_00h32.00.757,FlowerSimilarity_Experiment,2020.1.2,Win32,60,5fe17d4a51f3a9c1a60f9869,,,,,,,,,,,,,,,,,,,4,PF,,2,1.71376,,,,,,,,,,,,,,,,,,,,,,,,,,,,,,,,,,-82,-32,1,0,0,response5disk,5,152,-10,-3,1,0,0,rectangle,-10,-3,1,0,0,1,6,"[64,218,207,272,205,126,320,229,107,265,246,185,167,299,206,271,65,150,96,86]",-10,-3,1,0,0,0,151,151,49,1,,,,,,,,,,,,,,,,,,,,,,,
,,,,,,,,,,,,,,,,,,,,,,,,,,,,,,,,,,,,,,,,,,,5ec1f52f74d69c62f8207c23,5fe192c0c39215c3d6ca4c47,2020-12-22_00h32.00.757,FlowerSimilarity_Experiment,2020.1.2,Win32,60,5fe17d4a51f3a9c1a60f9869,,,,,,,,,,,,,,,,,,,3,FF,,5,1.66379,,,,,,,,,,,,,,,,,,,,,,,,,,,,,,,,,,86,-39,1,0,0,response3disk,6,153,4,-2,1,0,0,rectangle,4,-2,1,0,0,1,1,"[64,218,207,272,205,126,320,229,107,265,246,185,167,299,206,271,65,150,96,86]",4,-2,1,0,0,0,152,152,95,1,,,,,,,,,,,,,,,,,,,,,,,
,,,,,,,,,,,,,,,,,,,,,,,,,,,,,,,,,,,,,,,,,,,5ec1f52f74d69c62f8207c23,5fe192c0c39215c3d6ca4c47,2020-12-22_00h32.00.757,FlowerSimilarity_Experiment,2020.1.2,Win32,60,5fe17d4a51f3a9c1a60f9869,,,,,,,,,,,,,,,,,,,2,PF,,6,1.682795,,,,,,,,,,,,,,,,,,,,,,,,,,,,,,,,,,101,33,1,0,0,response1disk,7,154,-4,4,1,0,0,rectangle,-4,4,1,0,0,1,5,"[64,218,207,272,205,126,320,229,107,265,246,185,167,299,206,271,65,150,96,86]",-4,4,1,0,0,0,153,153,107,1,,,,,,,,,,,,,,,,,,,,,,,
,,,,,,,,,,,,,,,,,,,,,,,,,,,,,,,,,,,,,,,,,,,5ec1f52f74d69c62f8207c23,5fe192c0c39215c3d6ca4c47,2020-12-22_00h32.00.757,FlowerSimilarity_Experiment,2020.1.2,Win32,60,5fe17d4a51f3a9c1a60f9869,,,,,,,,,,,,,,,,,,,2,PF,,2,1.90564,,,,,,,,,,,,,,,,,,,,,,,,,,,,,,,,,,-82,-33,1,0,0,response5disk,3,155,-2,0,1,0,0,rectangle,-2,0,1,0,0,1,0,"[64,218,207,272,205,126,320,229,107,265,246,185,167,299,206,271,65,150,96,86]",-2,0,1,0,0,0,154,154,69,1,,,,,,,,,,,,,,,,,,,,,,,
,,,,,,,,,,,,,,,,,,,,,,,,,,,,,,,,,,,,,,,,,,,5ec1f52f74d69c62f8207c23,5fe192c0c39215c3d6ca4c47,2020-12-22_00h32.00.757,FlowerSimilarity_Experiment,2020.1.2,Win32,60,5fe17d4a51f3a9c1a60f9869,,,,,,,,,,,,,,,,,,,7,PF,,2,1.41257,,,,,,,,,,,,,,,,,,,,,,,,,,,,,,,,,,-82,-39,1,0,0,response5disk,5,156,13,-1,1,0,0,rectangle,13,-1,1,0,0,1,2,"[64,218,207,272,205,126,320,229,107,265,246,185,167,299,206,271,65,150,96,86]",13,-1,1,0,0,0,155,155,92,1,,,,,,,,,,,,,,,,,,,,,,,
,,,,,,,,,,,,,,,,,,,,,,,,,,,,,,,,,,,,,,,,,,,5ec1f52f74d69c62f8207c23,5fe192c0c39215c3d6ca4c47,2020-12-22_00h32.00.757,FlowerSimilarity_Experiment,2020.1.2,Win32,60,5fe17d4a51f3a9c1a60f9869,,,,,,,,,,,,,,,,,,,6,PF,,5,2.372205,,,,,,,,,,,,,,,,,,,,,,,,,,,,,,,,,,82,-38,1,0,0,response3disk,4,157,4,-2,1,0,0,rectangle,4,-2,1,0,0,1,0,"[64,218,207,272,205,126,320,229,107,265,246,185,167,299,206,271,65,150,96,86]",4,-2,1,0,0,0,156,156,33,1,,,,,,,,,,,,,,,,,,,,,,,
,,,,,,,,,,,,,,,,,,,,,,,,,,,,,,,,,,,,,,,,,,,5ec1f52f74d69c62f8207c23,5fe192c0c39215c3d6ca4c47,2020-12-22_00h32.00.757,FlowerSimilarity_Experiment,2020.1.2,Win32,60,5fe17d4a51f3a9c1a60f9869,,,,,,,,,,,,,,,,,,,5,PF,,5,3.59865,,,,,,,,,,,,,,,,,,,,,,,,,,,,,,,,,,77,-34,1,0,0,response3disk,3,158,9,-7,1,0,0,rectangle,9,-7,1,0,0,1,6,"[64,218,207,272,205,126,320,229,107,265,246,185,167,299,206,271,65,150,96,86]",9,-7,1,0,0,0,157,157,109,1,,,,,,,,,,,,,,,,,,,,,,,
,,,,,,,,,,,,,,,,,,,,,,,,,,,,,,,,,,,,,,,,,,,5ec1f52f74d69c62f8207c23,5fe192c0c39215c3d6ca4c47,2020-12-22_00h32.00.757,FlowerSimilarity_Experiment,2020.1.2,Win32,60,5fe17d4a51f3a9c1a60f9869,,,,,,,,,,,,,,,,,,,7,FF,,6,1.21231,,,,,,,,,,,,,,,,,,,,,,,,,,,,,,,,,,97,38,1,0,0,response1disk,6,159,8,6,1,0,0,rectangle,8,6,1,0,0,1,2,"[64,218,207,272,205,126,320,229,107,265,246,185,167,299,206,271,65,150,96,86]",8,6,1,0,0,0,158,158,31,1,,,,,,,,,,,,,,,,,,,,,,,
,,,,,,,,,,,,,,,,,,,,,,,,,,,,,,,,,,,,,,,,,,,5ec1f52f74d69c62f8207c23,5fe192c0c39215c3d6ca4c47,2020-12-22_00h32.00.757,FlowerSimilarity_Experiment,2020.1.2,Win32,60,5fe17d4a51f3a9c1a60f9869,,,,,,,,,,,,,,,,,,,1,FF,,1,1.163135,,,,,,,,,,,,,,,,,,,,,,,,,,,,,,,,,,-99,32,1,0,0,response7disk,9,160,3,2,1,0,0,rectangle,3,2,1,0,0,1,1,"[64,218,207,272,205,126,320,229,107,265,246,185,167,299,206,271,65,150,96,86]",3,2,1,0,0,0,159,159,123,1,,,,,,,,,,,,,,,,,,,,,,,
,,,,,,,,,,,,,,,,,,,,,,,,,,,,,,,,,,,,,,,,,,,5ec1f52f74d69c62f8207c23,5fe192c0c39215c3d6ca4c47,2020-12-22_00h32.00.757,FlowerSimilarity_Experiment,2020.1.2,Win32,60,5fe17d4a51f3a9c1a60f9869,,,,,,,,,,,,,,,,,,,8,PF,,2,1.78209,,,,,,,,,,,,,,,,,,,,,,,,,,,,,,,,,,-78,-39,1,0,0,response5disk,3,161,8,-3,1,0,0,rectangle,8,-3,1,0,0,1,3,"[64,218,207,272,205,126,320,229,107,265,246,185,167,299,206,271,65,150,96,86]",8,-3,1,0,0,0,160,160,71,1,,,,,,,,,,,,,,,,,,,,,,,
,,,,,,,,,,,,,,,,,,,,,,,,,,,,,,,,,,,,,,,,,,,5ec1f52f74d69c62f8207c23,5fe192c0c39215c3d6ca4c47,2020-12-22_00h32.00.757,FlowerSimilarity_Experiment,2020.1.2,Win32,60,5fe17d4a51f3a9c1a60f9869,,,,,,,,,,,,,,,,,,,9,PF,,2,1.968695,,,,,,,,,,,,,,,,,,,,,,,,,,,,,,,,,,-85,-36,1,0,0,response5disk,2,162,-7,5,1,0,0,rectangle,-7,5,1,0,0,1,2,"[64,218,207,272,205,126,320,229,107,265,246,185,167,299,206,271,65,150,96,86]",-7,5,1,0,0,0,161,161,157,1,,,,,,,,,,,,,,,,,,,,,,,
,,,,,,,,,,,,,,,,,,,,,,,,,,,,,,,,,,,,,,,,,,,5ec1f52f74d69c62f8207c23,5fe192c0c39215c3d6ca4c47,2020-12-22_00h32.00.757,FlowerSimilarity_Experiment,2020.1.2,Win32,60,5fe17d4a51f3a9c1a60f9869,,,,,,,,,,,,,,,,,,,,,,,,,,,,,,,,,,,,,,,,,,,,,,,,,,,,,,,,,,,,,,,,,,,,,,,,,,,,,,,,,,,,,,,,,,,0,0,0,0,1,,,,,,,,,,,,,,,,
,,,,,,,,,,,,,,,,,,,,,,,,,,,,,,,,,,,,,,,,,,,5ec1f52f74d69c62f8207c23,5fe192c0c39215c3d6ca4c47,2020-12-22_00h32.00.757,FlowerSimilarity_Experiment,2020.1.2,Win32,60,5fe17d4a51f3a9c1a60f9869,,,,,,,,,,,,,,,,,,,3,PF,,2,2.065805,,,,,,,,,,,,,,,,,,,,,,,,,,,,,,,,,,-80,-35,1,0,0,response5disk,8,163,1,-1,1,0,0,rectangle,1,-1,1,0,0,1,7,"[64,218,207,272,205,126,320,229,107,265,246,185,167,299,206,271,65,150,96,86]",1,-1,1,0,0,0,0,0,3,1,,,,,,,,,,,,,,,,,,,,,,,
,,,,,,,,,,,,,,,,,,,,,,,,,,,,,,,,,,,,,,,,,,,5ec1f52f74d69c62f8207c23,5fe192c0c39215c3d6ca4c47,2020-12-22_00h32.00.757,FlowerSimilarity_Experiment,2020.1.2,Win32,60,5fe17d4a51f3a9c1a60f9869,,,,,,,,,,,,,,,,,,,3,PF,,5,2.13914,,,,,,,,,,,,,,,,,,,,,,,,,,,,,,,,,,83,-38,1,0,0,response3disk,6,164,11,-7,1,0,0,rectangle,11,-7,1,0,0,1,2,"[64,218,207,272,205,126,320,229,107,265,246,185,167,299,206,271,65,150,96,86]",11,-7,1,0,0,0,1,1,47,1,,,,,,,,,,,,,,,,,,,,,,,
,,,,,,,,,,,,,,,,,,,,,,,,,,,,,,,,,,,,,,,,,,,5ec1f52f74d69c62f8207c23,5fe192c0c39215c3d6ca4c47,2020-12-22_00h32.00.757,FlowerSimilarity_Experiment,2020.1.2,Win32,60,5fe17d4a51f3a9c1a60f9869,,,,,,,,,,,,,,,,,,,9,PF,,6,1.566885,,,,,,,,,,,,,,,,,,,,,,,,,,,,,,,,,,102,40,1,0,0,response1disk,8,165,13,3,1,0,0,rectangle,13,3,1,0,0,1,7,"[64,218,207,272,205,126,320,229,107,265,246,185,167,299,206,271,65,150,96,86]",13,3,1,0,0,0,2,2,67,1,,,,,,,,,,,,,,,,,,,,,,,
,,,,,,,,,,,,,,,,,,,,,,,,,,,,,,,,,,,,,,,,,,,5ec1f52f74d69c62f8207c23,5fe192c0c39215c3d6ca4c47,2020-12-22_00h32.00.757,FlowerSimilarity_Experiment,2020.1.2,Win32,60,5fe17d4a51f3a9c1a60f9869,,,,,,,,,,,,,,,,,,,7,PF,,1,1.341005,,,,,,,,,,,,,,,,,,,,,,,,,,,,,,,,,,-79,31,1,0,0,response7disk,3,166,8,-3,1,0,0,rectangle,8,-3,1,0,0,1,1,"[64,218,207,272,205,126,320,229,107,265,246,185,167,299,206,271,65,150,96,86]",8,-3,1,0,0,0,3,3,81,1,,,,,,,,,,,,,,,,,,,,,,,
,,,,,,,,,,,,,,,,,,,,,,,,,,,,,,,,,,,,,,,,,,,5ec1f52f74d69c62f8207c23,5fe192c0c39215c3d6ca4c47,2020-12-22_00h32.00.757,FlowerSimilarity_Experiment,2020.1.2,Win32,60,5fe17d4a51f3a9c1a60f9869,,,,,,,,,,,,,,,,,,,5,PF,,1,2.401165,,,,,,,,,,,,,,,,,,,,,,,,,,,,,,,,,,-78,25,1,0,0,response7disk,5,167,-2,-7,1,0,0,rectangle,-33,-89,1,0,0,3,3,"[64,218,207,272,205,126,320,229,107,265,246,185,167,299,206,271,65,150,96,86]",1,3,1,0,0,0,4,4,94,1,response5disk_3,rectangle,,,,,,,,,,,,,,,,,,,,,
,,,,,,,,,,,,,,,,,,,,,,,,,,,,,,,,,,,,,,,,,,,5ec1f52f74d69c62f8207c23,5fe192c0c39215c3d6ca4c47,2020-12-22_00h32.00.757,FlowerSimilarity_Experiment,2020.1.2,Win32,60,5fe17d4a51f3a9c1a60f9869,,,,,,,,,,,,,,,,,,,3,FF,,1,1.75582,,,,,,,,,,,,,,,,,,,,,,,,,,,,,,,,,,-91,35,1,0,0,response7disk,7,168,10,-5,1,0,0,rectangle,10,-5,1,0,0,3,3,"[64,218,207,272,205,126,320,229,107,265,246,185,167,299,206,271,65,150,96,86]",10,-5,1,0,0,0,5,5,118,1,,,,,,,,,,,,,,,,,,,,,,,
,,,,,,,,,,,,,,,,,,,,,,,,,,,,,,,,,,,,,,,,,,,5ec1f52f74d69c62f8207c23,5fe192c0c39215c3d6ca4c47,2020-12-22_00h32.00.757,FlowerSimilarity_Experiment,2020.1.2,Win32,60,5fe17d4a51f3a9c1a60f9869,,,,,,,,,,,,,,,,,,,2,PF,,3,2.35476,,,,,,,,,,,,,,,,,,,,,,,,,,,,,,,,,,-48,-95,1,0,0,response5disk,8,169,-5,-4,1,0,0,rectangle,-5,-4,1,0,0,3,6,"[64,218,207,272,205,126,320,229,107,265,246,185,167,299,206,271,65,150,96,86]",-5,-4,1,0,0,0,6,6,52,1,,,,,,,,,,,,,,,,,,,,,,,
,,,,,,,,,,,,,,,,,,,,,,,,,,,,,,,,,,,,,,,,,,,5ec1f52f74d69c62f8207c23,5fe192c0c39215c3d6ca4c47,2020-12-22_00h32.00.757,FlowerSimilarity_Experiment,2020.1.2,Win32,60,5fe17d4a51f3a9c1a60f9869,,,,,,,,,,,,,,,,,,,6,PF,,0,1.37621,,,,,,,,,,,,,,,,,,,,,,,,,,,,,,,,,,-35,99,1,0,0,response7disk,6,170,-5,10,1,0,0,rectangle,-5,10,1,0,0,3,5,"[64,218,207,272,205,126,320,229,107,265,246,185,167,299,206,271,65,150,96,86]",-5,10,1,0,0,0,7,7,0,1,,,,,,,,,,,,,,,,,,,,,,,
,,,,,,,,,,,,,,,,,,,,,,,,,,,,,,,,,,,,,,,,,,,5ec1f52f74d69c62f8207c23,5fe192c0c39215c3d6ca4c47,2020-12-22_00h32.00.757,FlowerSimilarity_Experiment,2020.1.2,Win32,60,5fe17d4a51f3a9c1a60f9869,,,,,,,,,,,,,,,,,,,3,FF,,2,2.203885,,,,,,,,,,,,,,,,,,,,,,,,,,,,,,,,,,-81,-38,1,0,0,response5disk,5,171,0,5,1,0,0,rectangle,0,5,1,0,0,3,3,"[64,218,207,272,205,126,320,229,107,265,246,185,167,299,206,271,65,150,96,86]",0,5,1,0,0,0,8,8,101,1,,,,,,,,,,,,,,,,,,,,,,,
,,,,,,,,,,,,,,,,,,,,,,,,,,,,,,,,,,,,,,,,,,,5ec1f52f74d69c62f8207c23,5fe192c0c39215c3d6ca4c47,2020-12-22_00h32.00.757,FlowerSimilarity_Experiment,2020.1.2,Win32,60,5fe17d4a51f3a9c1a60f9869,,,,,,,,,,,,,,,,,,,6,PF,,1,1.316965,,,,,,,,,,,,,,,,,,,,,,,,,,,,,,,,,,-84,37,1,0,0,response7disk,9,172,-3,-3,1,0,0,rectangle,-3,-3,1,0,0,3,7,"[64,218,207,272,205,126,320,229,107,265,246,185,167,299,206,271,65,150,96,86]",-3,-3,1,0,0,0,9,9,45,1,,,,,,,,,,,,,,,,,,,,,,,
,,,,,,,,,,,,,,,,,,,,,,,,,,,,,,,,,,,,,,,,,,,5ec1f52f74d69c62f8207c23,5fe192c0c39215c3d6ca4c47,2020-12-22_00h32.00.757,FlowerSimilarity_Experiment,2020.1.2,Win32,60,5fe17d4a51f3a9c1a60f9869,,,,,,,,,,,,,,,,,,,5,PF,,4,2.34826,,,,,,,,,,,,,,,,,,,,,,,,,,,,,,,,,,41,-103,1,0,0,response3disk,4,173,1,-5,1,0,0,rectangle,1,-5,1,0,0,3,3,"[64,218,207,272,205,126,320,229,107,265,246,185,167,299,206,271,65,150,96,86]",1,-5,1,0,0,0,10,10,54,1,,,,,,,,,,,,,,,,,,,,,,,
,,,,,,,,,,,,,,,,,,,,,,,,,,,,,,,,,,,,,,,,,,,5ec1f52f74d69c62f8207c23,5fe192c0c39215c3d6ca4c47,2020-12-22_00h32.00.757,FlowerSimilarity_Experiment,2020.1.2,Win32,60,5fe17d4a51f3a9c1a60f9869,,,,,,,,,,,,,,,,,,,2,PF,,1,1.371635,,,,,,,,,,,,,,,,,,,,,,,,,,,,,,,,,,-88,36,1,0,0,response7disk,1,174,12,-1,1,0,0,rectangle,12,-1,1,0,0,3,5,"[64,218,207,272,205,126,320,229,107,265,246,185,167,299,206,271,65,150,96,86]",12,-1,1,0,0,0,11,11,9,1,,,,,,,,,,,,,,,,,,,,,,,
,,,,,,,,,,,,,,,,,,,,,,,,,,,,,,,,,,,,,,,,,,,5ec1f52f74d69c62f8207c23,5fe192c0c39215c3d6ca4c47,2020-12-22_00h32.00.757,FlowerSimilarity_Experiment,2020.1.2,Win32,60,5fe17d4a51f3a9c1a60f9869,,,,,,,,,,,,,,,,,,,8,FF,,2,1.68696,,,,,,,,,,,,,,,,,,,,,,,,,,,,,,,,,,-85,-43,1,0,0,response5disk,7,175,1,-1,1,0,0,rectangle,1,-1,1,0,0,3,7,"[64,218,207,272,205,126,320,229,107,265,246,185,167,299,206,271,65,150,96,86]",1,-1,1,0,0,0,12,12,86,1,,,,,,,,,,,,,,,,,,,,,,,
,,,,,,,,,,,,,,,,,,,,,,,,,,,,,,,,,,,,,,,,,,,5ec1f52f74d69c62f8207c23,5fe192c0c39215c3d6ca4c47,2020-12-22_00h32.00.757,FlowerSimilarity_Experiment,2020.1.2,Win32,60,5fe17d4a51f3a9c1a60f9869,,,,,,,,,,,,,,,,,,,3,FF,,2,1.35888,,,,,,,,,,,,,,,,,,,,,,,,,,,,,,,,,,-85,-38,1,0,0,response5disk,8,176,-6,-1,1,0,0,rectangle,-6,-1,1,0,0,3,4,"[64,218,207,272,205,126,320,229,107,265,246,185,167,299,206,271,65,150,96,86]",-6,-1,1,0,0,0,13,13,44,1,,,,,,,,,,,,,,,,,,,,,,,
,,,,,,,,,,,,,,,,,,,,,,,,,,,,,,,,,,,,,,,,,,,5ec1f52f74d69c62f8207c23,5fe192c0c39215c3d6ca4c47,2020-12-22_00h32.00.757,FlowerSimilarity_Experiment,2020.1.2,Win32,60,5fe17d4a51f3a9c1a60f9869,,,,,,,,,,,,,,,,,,,4,FF,,3,1.733505,,,,,,,,,,,,,,,,,,,,,,,,,,,,,,,,,,-37,-98,1,0,0,response5disk,9,177,8,-8,1,0,0,rectangle,8,-8,1,0,0,3,2,"[64,218,207,272,205,126,320,229,107,265,246,185,167,299,206,271,65,150,96,86]",8,-8,1,0,0,0,14,14,90,1,,,,,,,,,,,,,,,,,,,,,,,
,,,,,,,,,,,,,,,,,,,,,,,,,,,,,,,,,,,,,,,,,,,5ec1f52f74d69c62f8207c23,5fe192c0c39215c3d6ca4c47,2020-12-22_00h32.00.757,FlowerSimilarity_Experiment,2020.1.2,Win32,60,5fe17d4a51f3a9c1a60f9869,,,,,,,,,,,,,,,,,,,9,FF,,1,1.50163,,,,,,,,,,,,,,,,,,,,,,,,,,,,,,,,,,-78,34,1,0,0,response7disk,1,178,-6,1,1,0,0,rectangle,-6,1,1,0,0,3,4,"[64,218,207,272,205,126,320,229,107,265,246,185,167,299,206,271,65,150,96,86]",-6,1,1,0,0,0,15,15,111,1,,,,,,,,,,,,,,,,,,,,,,,
,,,,,,,,,,,,,,,,,,,,,,,,,,,,,,,,,,,,,,,,,,,5ec1f52f74d69c62f8207c23,5fe192c0c39215c3d6ca4c47,2020-12-22_00h32.00.757,FlowerSimilarity_Experiment,2020.1.2,Win32,60,5fe17d4a51f3a9c1a60f9869,,,,,,,,,,,,,,,,,,,7,FF,,0,1.44125,,,,,,,,,,,,,,,,,,,,,,,,,,,,,,,,,,-29,88,1,0,0,response7disk,7,179,8,-4,1,0,0,rectangle,8,-4,1,0,0,3,7,"[64,218,207,272,205,126,320,229,107,265,246,185,167,299,206,271,65,150,96,86]",8,-4,1,0,0,0,16,16,34,1,,,,,,,,,,,,,,,,,,,,,,,
,,,,,,,,,,,,,,,,,,,,,,,,,,,,,,,,,,,,,,,,,,,5ec1f52f74d69c62f8207c23,5fe192c0c39215c3d6ca4c47,2020-12-22_00h32.00.757,FlowerSimilarity_Experiment,2020.1.2,Win32,60,5fe17d4a51f3a9c1a60f9869,,,,,,,,,,,,,,,,,,,5,FF,,1,1.568545,,,,,,,,,,,,,,,,,,,,,,,,,,,,,,,,,,-82,31,1,0,0,response7disk,8,180,-7,8,1,0,0,rectangle,-7,8,1,0,0,3,7,"[64,218,207,272,205,126,320,229,107,265,246,185,167,299,206,271,65,150,96,86]",-7,8,1,0,0,0,17,17,16,1,,,,,,,,,,,,,,,,,,,,,,,
,,,,,,,,,,,,,,,,,,,,,,,,,,,,,,,,,,,,,,,,,,,5ec1f52f74d69c62f8207c23,5fe192c0c39215c3d6ca4c47,2020-12-22_00h32.00.757,FlowerSimilarity_Experiment,2020.1.2,Win32,60,5fe17d4a51f3a9c1a60f9869,,,,,,,,,,,,,,,,,,,4,PF,,3,1.8735,,,,,,,,,,,,,,,,,,,,,,,,,,,,,,,,,,-41,-97,1,0,0,response5disk,6,181,-1,-3,1,0,0,rectangle,-1,-3,1,0,0,3,7,"[64,218,207,272,205,126,320,229,107,265,246,185,167,299,206,271,65,150,96,86]",-1,-3,1,0,0,0,18,18,120,1,,,,,,,,,,,,,,,,,,,,,,,
,,,,,,,,,,,,,,,,,,,,,,,,,,,,,,,,,,,,,,,,,,,5ec1f52f74d69c62f8207c23,5fe192c0c39215c3d6ca4c47,2020-12-22_00h32.00.757,FlowerSimilarity_Experiment,2020.1.2,Win32,60,5fe17d4a51f3a9c1a60f9869,,,,,,,,,,,,,,,,,,,8,FF,,3,2.256465,,,,,,,,,,,,,,,,,,,,,,,,,,,,,,,,,,-41,-104,1,0,0,response5disk,6,182,3,0,1,0,0,rectangle,3,0,1,0,0,3,1,"[64,218,207,272,205,126,320,229,107,265,246,185,167,299,206,271,65,150,96,86]",3,0,1,0,0,0,19,19,37,1,,,,,,,,,,,,,,,,,,,,,,,
,,,,,,,,,,,,,,,,,,,,,,,,,,,,,,,,,,,,,,,,,,,5ec1f52f74d69c62f8207c23,5fe192c0c39215c3d6ca4c47,2020-12-22_00h32.00.757,FlowerSimilarity_Experiment,2020.1.2,Win32,60,5fe17d4a51f3a9c1a60f9869,,,,,,,,,,,,,,,,,,,4,FF,,4,2.14128,,,,,,,,,,,,,,,,,,,,,,,,,,,,,,,,,,35,-102,1,0,0,response3disk,5,183,-1,-2,1,0,0,rectangle,-1,-2,1,0,0,3,1,"[64,218,207,272,205,126,320,229,107,265,246,185,167,299,206,271,65,150,96,86]",-1,-2,1,0,0,0,20,20,116,1,,,,,,,,,,,,,,,,,,,,,,,
,,,,,,,,,,,,,,,,,,,,,,,,,,,,,,,,,,,,,,,,,,,5ec1f52f74d69c62f8207c23,5fe192c0c39215c3d6ca4c47,2020-12-22_00h32.00.757,FlowerSimilarity_Experiment,2020.1.2,Win32,60,5fe17d4a51f3a9c1a60f9869,,,,,,,,,,,,,,,,,,,3,PF,,2,1.72195,,,,,,,,,,,,,,,,,,,,,,,,,,,,,,,,,,-91,-43,1,0,0,response5disk,5,184,-16,-3,1,0,0,rectangle,-16,-3,1,0,0,3,7,"[64,218,207,272,205,126,320,229,107,265,246,185,167,299,206,271,65,150,96,86]",-16,-3,1,0,0,0,21,21,66,1,,,,,,,,,,,,,,,,,,,,,,,
,,,,,,,,,,,,,,,,,,,,,,,,,,,,,,,,,,,,,,,,,,,5ec1f52f74d69c62f8207c23,5fe192c0c39215c3d6ca4c47,2020-12-22_00h32.00.757,FlowerSimilarity_Experiment,2020.1.2,Win32,60,5fe17d4a51f3a9c1a60f9869,,,,,,,,,,,,,,,,,,,9,PF,,4,1.448715,,,,,,,,,,,,,,,,,,,,,,,,,,,,,,,,,,33,-100,1,0,0,response3disk,5,185,-2,-2,1,0,0,rectangle,-80,-36,1,0,0,3,2,"[64,218,207,272,205,126,320,229,107,265,246,185,167,299,206,271,65,150,96,86]",-5,-8,1,0,0,0,22,22,134,1,response5disk_3,rectangle,,,,,,,,,,,,,,,,,,,,,
,,,,,,,,,,,,,,,,,,,,,,,,,,,,,,,,,,,,,,,,,,,5ec1f52f74d69c62f8207c23,5fe192c0c39215c3d6ca4c47,2020-12-22_00h32.00.757,FlowerSimilarity_Experiment,2020.1.2,Win32,60,5fe17d4a51f3a9c1a60f9869,,,,,,,,,,,,,,,,,,,4,PF,,3,2.81408,,,,,,,,,,,,,,,,,,,,,,,,,,,,,,,,,,-38,-100,1,0,0,response5disk,3,186,6,15,1,0,0,rectangle,6,15,1,0,0,3,2,"[64,218,207,272,205,126,320,229,107,265,246,185,167,299,206,271,65,150,96,86]",6,15,1,0,0,0,23,23,89,1,,,,,,,,,,,,,,,,,,,,,,,
,,,,,,,,,,,,,,,,,,,,,,,,,,,,,,,,,,,,,,,,,,,5ec1f52f74d69c62f8207c23,5fe192c0c39215c3d6ca4c47,2020-12-22_00h32.00.757,FlowerSimilarity_Experiment,2020.1.2,Win32,60,5fe17d4a51f3a9c1a60f9869,,,,,,,,,,,,,,,,,,,3,PF,,0,1.15099,,,,,,,,,,,,,,,,,,,,,,,,,,,,,,,,,,-42,98,1,0,0,response7disk,3,187,-13,-5,1,0,0,rectangle,-13,-5,1,0,0,3,0,"[64,218,207,272,205,126,320,229,107,265,246,185,167,299,206,271,65,150,96,86]",-13,-5,1,0,0,0,24,24,4,1,,,,,,,,,,,,,,,,,,,,,,,
,,,,,,,,,,,,,,,,,,,,,,,,,,,,,,,,,,,,,,,,,,,5ec1f52f74d69c62f8207c23,5fe192c0c39215c3d6ca4c47,2020-12-22_00h32.00.757,FlowerSimilarity_Experiment,2020.1.2,Win32,60,5fe17d4a51f3a9c1a60f9869,,,,,,,,,,,,,,,,,,,2,FF,,0,1.18628,,,,,,,,,,,,,,,,,,,,,,,,,,,,,,,,,,-34,95,1,0,0,response7disk,2,188,19,-1,1,0,0,rectangle,19,-1,1,0,0,3,7,"[64,218,207,272,205,126,320,229,107,265,246,185,167,299,206,271,65,150,96,86]",19,-1,1,0,0,0,25,25,142,1,,,,,,,,,,,,,,,,,,,,,,,
,,,,,,,,,,,,,,,,,,,,,,,,,,,,,,,,,,,,,,,,,,,5ec1f52f74d69c62f8207c23,5fe192c0c39215c3d6ca4c47,2020-12-22_00h32.00.757,FlowerSimilarity_Experiment,2020.1.2,Win32,60,5fe17d4a51f3a9c1a60f9869,,,,,,,,,,,,,,,,,,,9,FF,,6,1.96284,,,,,,,,,,,,,,,,,,,,,,,,,,,,,,,,,,93,26,1,0,0,response1disk,7,189,7,-1,1,0,0,rectangle,7,-1,1,0,0,3,4,"[64,218,207,272,205,126,320,229,107,265,246,185,167,299,206,271,65,150,96,86]",7,-1,1,0,0,0,26,26,100,1,,,,,,,,,,,,,,,,,,,,,,,
,,,,,,,,,,,,,,,,,,,,,,,,,,,,,,,,,,,,,,,,,,,5ec1f52f74d69c62f8207c23,5fe192c0c39215c3d6ca4c47,2020-12-22_00h32.00.757,FlowerSimilarity_Experiment,2020.1.2,Win32,60,5fe17d4a51f3a9c1a60f9869,,,,,,,,,,,,,,,,,,,4,FF,,2,2.19958,,,,,,,,,,,,,,,,,,,,,,,,,,,,,,,,,,-81,-33,1,0,0,response5disk,2,190,-2,2,1,0,0,rectangle,-2,2,1,0,0,3,6,"[64,218,207,272,205,126,320,229,107,265,246,185,167,299,206,271,65,150,96,86]",-2,2,1,0,0,0,27,27,13,1,,,,,,,,,,,,,,,,,,,,,,,
,,,,,,,,,,,,,,,,,,,,,,,,,,,,,,,,,,,,,,,,,,,5ec1f52f74d69c62f8207c23,5fe192c0c39215c3d6ca4c47,2020-12-22_00h32.00.757,FlowerSimilarity_Experiment,2020.1.2,Win32,60,5fe17d4a51f3a9c1a60f9869,,,,,,,,,,,,,,,,,,,6,FF,,4,1.50374,,,,,,,,,,,,,,,,,,,,,,,,,,,,,,,,,,38,-98,1,0,0,response3disk,8,191,4,-6,1,0,0,rectangle,4,-6,1,0,0,3,0,"[64,218,207,272,205,126,320,229,107,265,246,185,167,299,206,271,65,150,96,86]",4,-6,1,0,0,0,28,28,133,1,,,,,,,,,,,,,,,,,,,,,,,
,,,,,,,,,,,,,,,,,,,,,,,,,,,,,,,,,,,,,,,,,,,5ec1f52f74d69c62f8207c23,5fe192c0c39215c3d6ca4c47,2020-12-22_00h32.00.757,FlowerSimilarity_Experiment,2020.1.2,Win32,60,5fe17d4a51f3a9c1a60f9869,,,,,,,,,,,,,,,,,,,2,PF,,2,1.274415,,,,,,,,,,,,,,,,,,,,,,,,,,,,,,,,,,-72,-38,1,0,0,response5disk,5,192,-3,10,1,0,0,rectangle,-3,10,1,0,0,3,2,"[64,218,207,272,205,126,320,229,107,265,246,185,167,299,206,271,65,150,96,86]",-3,10,1,0,0,0,29,29,147,1,,,,,,,,,,,,,,,,,,,,,,,
,,,,,,,,,,,,,,,,,,,,,,,,,,,,,,,,,,,,,,,,,,,5ec1f52f74d69c62f8207c23,5fe192c0c39215c3d6ca4c47,2020-12-22_00h32.00.757,FlowerSimilarity_Experiment,2020.1.2,Win32,60,5fe17d4a51f3a9c1a60f9869,,,,,,,,,,,,,,,,,,,4,FF,,2,1.95109,,,,,,,,,,,,,,,,,,,,,,,,,,,,,,,,,,-81,-39,1,0,0,response5disk,1,193,11,2,1,0,0,rectangle,11,2,1,0,0,3,6,"[64,218,207,272,205,126,320,229,107,265,246,185,167,299,206,271,65,150,96,86]",11,2,1,0,0,0,30,30,102,1,,,,,,,,,,,,,,,,,,,,,,,
,,,,,,,,,,,,,,,,,,,,,,,,,,,,,,,,,,,,,,,,,,,5ec1f52f74d69c62f8207c23,5fe192c0c39215c3d6ca4c47,2020-12-22_00h32.00.757,FlowerSimilarity_Experiment,2020.1.2,Win32,60,5fe17d4a51f3a9c1a60f9869,,,,,,,,,,,,,,,,,,,9,FF,,3,2.839335,,,,,,,,,,,,,,,,,,,,,,,,,,,,,,,,,,-33,-105,1,0,0,response5disk,3,194,15,3,1,0,0,rectangle,15,3,1,0,0,3,2,"[64,218,207,272,205,126,320,229,107,265,246,185,167,299,206,271,65,150,96,86]",15,3,1,0,0,0,31,31,141,1,,,,,,,,,,,,,,,,,,,,,,,
,,,,,,,,,,,,,,,,,,,,,,,,,,,,,,,,,,,,,,,,,,,5ec1f52f74d69c62f8207c23,5fe192c0c39215c3d6ca4c47,2020-12-22_00h32.00.757,FlowerSimilarity_Experiment,2020.1.2,Win32,60,5fe17d4a51f3a9c1a60f9869,,,,,,,,,,,,,,,,,,,3,PF,,2,2.01775,,,,,,,,,,,,,,,,,,,,,,,,,,,,,,,,,,-82,-38,1,0,0,response5disk,2,195,7,-4,1,0,0,rectangle,7,-4,1,0,0,3,2,"[64,218,207,272,205,126,320,229,107,265,246,185,167,299,206,271,65,150,96,86]",7,-4,1,0,0,0,32,32,36,1,,,,,,,,,,,,,,,,,,,,,,,
,,,,,,,,,,,,,,,,,,,,,,,,,,,,,,,,,,,,,,,,,,,5ec1f52f74d69c62f8207c23,5fe192c0c39215c3d6ca4c47,2020-12-22_00h32.00.757,FlowerSimilarity_Experiment,2020.1.2,Win32,60,5fe17d4a51f3a9c1a60f9869,,,,,,,,,,,,,,,,,,,4,PF,,1,1.764465,,,,,,,,,,,,,,,,,,,,,,,,,,,,,,,,,,-90,28,1,0,0,response7disk,7,196,-11,-8,1,0,0,rectangle,-11,-8,1,0,0,3,3,"[64,218,207,272,205,126,320,229,107,265,246,185,167,299,206,271,65,150,96,86]",-11,-8,1,0,0,0,33,33,38,1,,,,,,,,,,,,,,,,,,,,,,,
,,,,,,,,,,,,,,,,,,,,,,,,,,,,,,,,,,,,,,,,,,,5ec1f52f74d69c62f8207c23,5fe192c0c39215c3d6ca4c47,2020-12-22_00h32.00.757,FlowerSimilarity_Experiment,2020.1.2,Win32,60,5fe17d4a51f3a9c1a60f9869,,,,,,,,,,,,,,,,,,,2,PF,,4,1.7153,,,,,,,,,,,,,,,,,,,,,,,,,,,,,,,,,,42,-105,1,0,0,response3disk,6,197,-2,5,1,0,0,rectangle,-2,5,1,0,0,3,2,"[64,218,207,272,205,126,320,229,107,265,246,185,167,299,206,271,65,150,96,86]",-2,5,1,0,0,0,34,34,113,1,,,,,,,,,,,,,,,,,,,,,,,
,,,,,,,,,,,,,,,,,,,,,,,,,,,,,,,,,,,,,,,,,,,5ec1f52f74d69c62f8207c23,5fe192c0c39215c3d6ca4c47,2020-12-22_00h32.00.757,FlowerSimilarity_Experiment,2020.1.2,Win32,60,5fe17d4a51f3a9c1a60f9869,,,,,,,,,,,,,,,,,,,6,FF,,6,1.706035,,,,,,,,,,,,,,,,,,,,,,,,,,,,,,,,,,99,28,1,0,0,response1disk,4,198,11,4,1,0,0,rectangle,11,4,1,0,0,3,2,"[64,218,207,272,205,126,320,229,107,265,246,185,167,299,206,271,65,150,96,86]",11,4,1,0,0,0,35,35,56,1,,,,,,,,,,,,,,,,,,,,,,,
,,,,,,,,,,,,,,,,,,,,,,,,,,,,,,,,,,,,,,,,,,,5ec1f52f74d69c62f8207c23,5fe192c0c39215c3d6ca4c47,2020-12-22_00h32.00.757,FlowerSimilarity_Experiment,2020.1.2,Win32,60,5fe17d4a51f3a9c1a60f9869,,,,,,,,,,,,,,,,,,,9,FF,,1,2.218205,,,,,,,,,,,,,,,,,,,,,,,,,,,,,,,,,,-84,40,1,0,0,response7disk,2,199,10,2,1,0,0,rectangle,10,2,1,0,0,3,4,"[64,218,207,272,205,126,320,229,107,265,246,185,167,299,206,271,65,150,96,86]",10,2,1,0,0,0,36,36,11,1,,,,,,,,,,,,,,,,,,,,,,,
,,,,,,,,,,,,,,,,,,,,,,,,,,,,,,,,,,,,,,,,,,,5ec1f52f74d69c62f8207c23,5fe192c0c39215c3d6ca4c47,2020-12-22_00h32.00.757,FlowerSimilarity_Experiment,2020.1.2,Win32,60,5fe17d4a51f3a9c1a60f9869,,,,,,,,,,,,,,,,,,,4,PF,,2,2.077585,,,,,,,,,,,,,,,,,,,,,,,,,,,,,,,,,,-78,-40,1,0,0,response5disk,8,200,-8,-4,1,0,0,rectangle,-8,-4,1,0,0,3,5,"[64,218,207,272,205,126,320,229,107,265,246,185,167,299,206,271,65,150,96,86]",-8,-4,1,0,0,0,37,37,124,1,,,,,,,,,,,,,,,,,,,,,,,
,,,,,,,,,,,,,,,,,,,,,,,,,,,,,,,,,,,,,,,,,,,5ec1f52f74d69c62f8207c23,5fe192c0c39215c3d6ca4c47,2020-12-22_00h32.00.757,FlowerSimilarity_Experiment,2020.1.2,Win32,60,5fe17d4a51f3a9c1a60f9869,,,,,,,,,,,,,,,,,,,7,PF,,3,2.650525,,,,,,,,,,,,,,,,,,,,,,,,,,,,,,,,,,-39,-94,1,0,0,response5disk,1,201,7,2,1,0,0,rectangle,7,2,1,0,0,3,2,"[64,218,207,272,205,126,320,229,107,265,246,185,167,299,206,271,65,150,96,86]",7,2,1,0,0,0,38,38,53,1,,,,,,,,,,,,,,,,,,,,,,,
,,,,,,,,,,,,,,,,,,,,,,,,,,,,,,,,,,,,,,,,,,,5ec1f52f74d69c62f8207c23,5fe192c0c39215c3d6ca4c47,2020-12-22_00h32.00.757,FlowerSimilarity_Experiment,2020.1.2,Win32,60,5fe17d4a51f3a9c1a60f9869,,,,,,,,,,,,,,,,,,,4,FF,,2,1.5997,,,,,,,,,,,,,,,,,,,,,,,,,,,,,,,,,,-96,-38,1,0,0,response5disk,7,202,-19,-2,1,0,0,rectangle,-19,-2,1,0,0,3,1,"[64,218,207,272,205,126,320,229,107,265,246,185,167,299,206,271,65,150,96,86]",-19,-2,1,0,0,0,39,39,87,1,,,,,,,,,,,,,,,,,,,,,,,
,,,,,,,,,,,,,,,,,,,,,,,,,,,,,,,,,,,,,,,,,,,5ec1f52f74d69c62f8207c23,5fe192c0c39215c3d6ca4c47,2020-12-22_00h32.00.757,FlowerSimilarity_Experiment,2020.1.2,Win32,60,5fe17d4a51f3a9c1a60f9869,,,,,,,,,,,,,,,,,,,1,FF,,6,1.77798,,,,,,,,,,,,,,,,,,,,,,,,,,,,,,,,,,103,34,1,0,0,response1disk,8,203,-10,-1,1,0,0,rectangle,-10,-1,1,0,0,3,6,"[64,218,207,272,205,126,320,229,107,265,246,185,167,299,206,271,65,150,96,86]",-10,-1,1,0,0,0,40,40,27,1,,,,,,,,,,,,,,,,,,,,,,,
,,,,,,,,,,,,,,,,,,,,,,,,,,,,,,,,,,,,,,,,,,,5ec1f52f74d69c62f8207c23,5fe192c0c39215c3d6ca4c47,2020-12-22_00h32.00.757,FlowerSimilarity_Experiment,2020.1.2,Win32,60,5fe17d4a51f3a9c1a60f9869,,,,,,,,,,,,,,,,,,,4,FF,,5,3.32814,,,,,,,,,,,,,,,,,,,,,,,,,,,,,,,,,,85,-40,1,0,0,response3disk,6,204,-4,-7,1,0,0,rectangle,-4,-7,1,0,0,3,4,"[64,218,207,272,205,126,320,229,107,265,246,185,167,299,206,271,65,150,96,86]",-4,-7,1,0,0,0,41,41,122,1,,,,,,,,,,,,,,,,,,,,,,,
