key_resp.keys,key_resp.rt,key_resp_16.keys,key_resp_16.rt,key_resp_2.keys,key_resp_2.rt,X Scale,ratio_pxpermm,screen_size_x,screen_size_y,testsize,key_resp_3.keys,key_resp_3.rt,key_resp_4.keys,key_resp_4.rt,line_size,key_resp_5.keys,key_resp_5.rt,key_resp_6.keys,key_resp_6.rt,key_resp_8.keys,key_resp_8.rt,key_resp_7.keys,key_resp_7.rt,key_resp_12.keys,key_resp_12.rt,key_resp_11.keys,key_resp_11.rt,key_resp_18.keys,key_resp_18.rt,key_resp_21.keys,key_resp_21.rt,key_resp_13.keys,key_resp_13.rt,key_resp_19.keys,key_resp_19.rt,ballposx,viewer_distance,trials.thisRepN,trials.thisTrialN,trials.thisN,trials.thisIndex,trials.ran,participant,session,date,expName,psychopyVersion,OS,frameRate,study_id,viewerdistancecm,DVA_to_distance,radius_F,radius_P,r_F,R_P,key_resp_20.keys,key_resp_20.rt,key_resp_14.keys,key_resp_14.rt,key_resp_15.keys,key_resp_15.rt,key_resp_17.keys,key_resp_17.rt,key_resp_9.keys,key_resp_9.rt,key_resp_10.keys,key_resp_10.rt,Flower1,Ecc,Flower_2,similarity,response_time,mouse_5.x,mouse_5.y,mouse_5.leftButton,mouse_5.midButton,mouse_5.rightButton,mouse_5.clicked_name,mouse_10.x,mouse_10.y,mouse_10.leftButton,mouse_10.midButton,mouse_10.rightButton,mouse_10.clicked_name,mouse_7.x,mouse_7.y,mouse_7.leftButton,mouse_7.midButton,mouse_7.rightButton,catchnumberprac,mouse_6.x,mouse_6.y,mouse_6.leftButton,mouse_6.midButton,mouse_6.rightButton,duringprac.thisRepN,duringprac.thisTrialN,duringprac.thisN,duringprac.thisIndex,duringprac.ran,mouse_7.clicked_name,catchprac,mouse_6.clicked_name,key_resp_22.keys,key_resp_22.rt,mouse.x,mouse.y,mouse.leftButton,mouse.midButton,mouse.rightButton,mouse.clicked_name,Flower2,trialnumber,mouse_2.x,mouse_2.y,mouse_2.leftButton,mouse_2.midButton,mouse_2.rightButton,mouse_2.clicked_name,mouse_3.x,mouse_3.y,mouse_3.leftButton,mouse_3.midButton,mouse_3.rightButton,catchresponse,catchnumber,catchtrialorder,mouse_11.x,mouse_11.y,mouse_11.leftButton,mouse_11.midButton,mouse_11.rightButton,trials_2.thisRepN,trials_2.thisTrialN,trials_2.thisN,trials_2.thisIndex,trials_2.ran,mouse_3.clicked_name,mouse_11.clicked_name,trials_3.thisRepN,trials_3.thisTrialN,trials_3.thisN,trials_3.thisIndex,trials_3.ran,answer1,rt1,answer2,rt2,answer3,rt3,answer4,rt4,answer5,rt5,answer6,rt6,answer8,rt8,answer7,rt7
space,1.817975,space,9.008525,space,4.01345,36.2,3.62,464.0883978,290.0552486,1680,space,7.90932,space,11.50563,72.4,space,6.289275,space,4.964895,space,1.34058,space,3.012985,space,13.50113,space,6.52148,space,6.144045,space,11.836975,space,11.19897,return,3.503265,98.28,660.1427268,0,0,0,0,1,5ee9e9d06580b8000940f89f,5fe1a6f32fbe51c368aa13ec,2020-12-22_08h58.00.575,FlowerSimilarity_Experiment,2020.1.2,Win32,60,5fe17d4a51f3a9c1a60f9869,,,,,,,,,,,,,,,,,,,,,,,,,,,,,,,,,,,,,,,,,,,,,,,,,,,,,,,,,,,,,,,,,,,,,,,,,,,,,,,,,,,,,,,,,,,,,,,,,,,,,,,,,,,,,,,
,,,,,,,,,,,,,,,,,,,,,,,,,,,,,,,,,,return,3.587025,85.68,674.6407369,1,0,1,0,1,5ee9e9d06580b8000940f89f,5fe1a6f32fbe51c368aa13ec,2020-12-22_08h58.00.575,FlowerSimilarity_Experiment,2020.1.2,Win32,60,5fe17d4a51f3a9c1a60f9869,,,,,,,,,,,,,,,,,,,,,,,,,,,,,,,,,,,,,,,,,,,,,,,,,,,,,,,,,,,,,,,,,,,,,,,,,,,,,,,,,,,,,,,,,,,,,,,,,,,,,,,,,,,,,,,
,,,,,,,,,,,,,,,,,,,,,,,,,,,,,,,,,,return,3.270055,133.56,619.5482985,2,0,2,0,1,5ee9e9d06580b8000940f89f,5fe1a6f32fbe51c368aa13ec,2020-12-22_08h58.00.575,FlowerSimilarity_Experiment,2020.1.2,Win32,60,5fe17d4a51f3a9c1a60f9869,,,,,,,,,,,,,,,,,,,,,,,,,,,,,,,,,,,,,,,,,,,,,,,,,,,,,,,,,,,,,,,,,,,,,,,,,,,,,,,,,,,,,,,,,,,,,,,,,,,,,,,,,,,,,,,
,,,,,,,,,,,,,,,,,,,,,,,,,,,,,,,,,,return,3.48703,100.8,657.2431248,3,0,3,0,1,5ee9e9d06580b8000940f89f,5fe1a6f32fbe51c368aa13ec,2020-12-22_08h58.00.575,FlowerSimilarity_Experiment,2020.1.2,Win32,60,5fe17d4a51f3a9c1a60f9869,,,,,,,,,,,,,,,,,,,,,,,,,,,,,,,,,,,,,,,,,,,,,,,,,,,,,,,,,,,,,,,,,,,,,,,,,,,,,,,,,,,,,,,,,,,,,,,,,,,,,,,,,,,,,,,
,,,,,,,,,,,,,,,,,,,,,,,,,,,,,,,,,,return,3.302995,128.52,625.3475026,4,0,4,0,1,5ee9e9d06580b8000940f89f,5fe1a6f32fbe51c368aa13ec,2020-12-22_08h58.00.575,FlowerSimilarity_Experiment,2020.1.2,Win32,60,5fe17d4a51f3a9c1a60f9869,,,,,,,,,,,,,,,,,,,,,,,,,,,,,,,,,,,,,,,,,,,,,,,,,,,,,,,,,,,,,,,,,,,,,,,,,,,,,,,,,,,,,,,,,,,,,,,,,,,,,,,,,,,,,,,
,,,,,,,,,,,,,,,,,,,,,,,,,,,,,,,,,,,,,,,,,,,5ee9e9d06580b8000940f89f,5fe1a6f32fbe51c368aa13ec,2020-12-22_08h58.00.575,FlowerSimilarity_Experiment,2020.1.2,Win32,60,5fe17d4a51f3a9c1a60f9869,65,11.34578815,61.60762963,410.7175309,41.07175309,184.8228889,space,5.086645,space,7.767885,space,9.60477,space,7.477805,space,3.017115,space,4.11695,9,PF,3,2,6.59992,-97,-59,1,0,0,response5disk_5,10,1,1,0,0,rectangle_8,10,1,1,0,0,5,10,1,1,0,0,0,0,0,6,1,,,,,,,,,,,,,,,,,,,,,,,,,,,,,,,,,,,,,,,,,,,,,,,,,,,,,,,,,,,,
,,,,,,,,,,,,,,,,,,,,,,,,,,,,,,,,,,,,,,,,,,,5ee9e9d06580b8000940f89f,5fe1a6f32fbe51c368aa13ec,2020-12-22_08h58.00.575,FlowerSimilarity_Experiment,2020.1.2,Win32,60,5fe17d4a51f3a9c1a60f9869,,,,,,,,,,,,,,,,,,,1,PF,4,0,6.923695,-30,126,1,0,0,response7disk_5,7,2,1,0,0,rectangle_8,7,2,1,0,0,5,7,2,1,0,0,0,1,1,4,1,,,,,,,,,,,,,,,,,,,,,,,,,,,,,,,,,,,,,,,,,,,,,,,,,,,,,,,,,,,,
,,,,,,,,,,,,,,,,,,,,,,,,,,,,,,,,,,,,,,,,,,,5ee9e9d06580b8000940f89f,5fe1a6f32fbe51c368aa13ec,2020-12-22_08h58.00.575,FlowerSimilarity_Experiment,2020.1.2,Win32,60,5fe17d4a51f3a9c1a60f9869,,,,,,,,,,,,,,,,,,,2,PF,1,7,2.07726,33,59,1,0,0,response1disk_5,-3,-7,1,0,0,rectangle_8,79,-45,1,0,0,5,30,8,1,0,0,0,2,2,1,1,response3disk_7,5,rectangle_4,,,,,,,,,,,,,,,,,,,,,,,,,,,,,,,,,,,,,,,,,,,,,,,,,,,,,,,,,
,,,,,,,,,,,,,,,,,,,,,,,,,,,,,,,,,,,,,,,,,,,5ee9e9d06580b8000940f89f,5fe1a6f32fbe51c368aa13ec,2020-12-22_08h58.00.575,FlowerSimilarity_Experiment,2020.1.2,Win32,60,5fe17d4a51f3a9c1a60f9869,,,,,,,,,,,,,,,,,,,1,FF,6,2,2.755035,-93,-37,1,0,0,response5disk_5,-4,-2,1,0,0,rectangle_8,-4,-2,1,0,0,5,-4,-2,1,0,0,0,3,3,0,1,,,,,,,,,,,,,,,,,,,,,,,,,,,,,,,,,,,,,,,,,,,,,,,,,,,,,,,,,,,,
,,,,,,,,,,,,,,,,,,,,,,,,,,,,,,,,,,,,,,,,,,,5ee9e9d06580b8000940f89f,5fe1a6f32fbe51c368aa13ec,2020-12-22_08h58.00.575,FlowerSimilarity_Experiment,2020.1.2,Win32,60,5fe17d4a51f3a9c1a60f9869,,,,,,,,,,,,,,,,,,,4,FF,5,6,2.97514,68,45,1,0,0,response1disk_5,-10,3,1,0,0,rectangle_8,-10,3,1,0,0,5,-10,3,1,0,0,0,4,4,3,1,,,,,,,,,,,,,,,,,,,,,,,,,,,,,,,,,,,,,,,,,,,,,,,,,,,,,,,,,,,,
,,,,,,,,,,,,,,,,,,,,,,,,,,,,,,,,,,,,,,,,,,,5ee9e9d06580b8000940f89f,5fe1a6f32fbe51c368aa13ec,2020-12-22_08h58.00.575,FlowerSimilarity_Experiment,2020.1.2,Win32,60,5fe17d4a51f3a9c1a60f9869,,,,,,,,,,,,,,,,,,,2,PF,9,5,1.51565,56,-24,1,0,0,response3disk_5,0,-3,1,0,0,rectangle_8,0,-3,1,0,0,5,0,-3,1,0,0,0,5,5,2,1,,,,,,,,,,,,,,,,,,,,,,,,,,,,,,,,,,,,,,,,,,,,,,,,,,,,,,,,,,,,
,,,,,,,,,,,,,,,,,,,,,,,,,,,,,,,,,,,,,,,,,,,5ee9e9d06580b8000940f89f,5fe1a6f32fbe51c368aa13ec,2020-12-22_08h58.00.575,FlowerSimilarity_Experiment,2020.1.2,Win32,60,5fe17d4a51f3a9c1a60f9869,,,,,,,,,,,,,,,,,,,2,FF,5,6,3.525435,76,37,1,0,0,response1disk_5,26,-8,1,0,0,rectangle_8,26,-8,1,0,0,5,26,-8,1,0,0,0,6,6,5,1,,,,,,,,,,,,,,,,,,,,,,,,,,,,,,,,,,,,,,,,,,,,,,,,,,,,,,,,,,,,
,,,,,,,,,,,,,,,,,,,,,,,,,,,,,,,,,,,,,,,,,,,5ee9e9d06580b8000940f89f,5fe1a6f32fbe51c368aa13ec,2020-12-22_08h58.00.575,FlowerSimilarity_Experiment,2020.1.2,Win32,60,5fe17d4a51f3a9c1a60f9869,,,,,,,,,,,,,,,,,,,3,FF,,3,3.027585,,,,,,,,,,,,,,,,,,,,,,,,,,,,,,,,space,3.515255,-56,-82,1,0,0,response5disk,6,1,9,6,1,0,0,rectangle,9,6,1,0,0,,5,"[3,220,225,91,201,33,145,146,141,168,201,73,269,79,123,44,28,245,187,150]",9,6,1,0,0,0,0,0,95,1,,,,,,,,,,,,,,,,,,,,,,,
,,,,,,,,,,,,,,,,,,,,,,,,,,,,,,,,,,,,,,,,,,,5ee9e9d06580b8000940f89f,5fe1a6f32fbe51c368aa13ec,2020-12-22_08h58.00.575,FlowerSimilarity_Experiment,2020.1.2,Win32,60,5fe17d4a51f3a9c1a60f9869,,,,,,,,,,,,,,,,,,,4,FF,,4,1.670085,,,,,,,,,,,,,,,,,,,,,,,,,,,,,,,,,,47,-104,1,0,0,response3disk,3,2,9,-14,1,0,0,rectangle,9,-14,1,0,0,,3,"[3,220,225,91,201,33,145,146,141,168,201,73,269,79,123,44,28,245,187,150]",9,-14,1,0,0,0,1,1,77,1,,,,,,,,,,,,,,,,,,,,,,,
,,,,,,,,,,,,,,,,,,,,,,,,,,,,,,,,,,,,,,,,,,,5ee9e9d06580b8000940f89f,5fe1a6f32fbe51c368aa13ec,2020-12-22_08h58.00.575,FlowerSimilarity_Experiment,2020.1.2,Win32,60,5fe17d4a51f3a9c1a60f9869,,,,,,,,,,,,,,,,,,,9,PF,,1,2.29352,,,,,,,,,,,,,,,,,,,,,,,,,,,,,,,,,,-92,44,1,0,0,response7disk,9,3,-11,-1,1,0,0,rectangle,-76,35,1,0,0,1,1,"[3,220,225,91,201,33,145,146,141,168,201,73,269,79,123,44,28,245,187,150]",-11,1,1,0,0,0,2,2,106,1,response7disk_3,rectangle,,,,,,,,,,,,,,,,,,,,,
,,,,,,,,,,,,,,,,,,,,,,,,,,,,,,,,,,,,,,,,,,,5ee9e9d06580b8000940f89f,5fe1a6f32fbe51c368aa13ec,2020-12-22_08h58.00.575,FlowerSimilarity_Experiment,2020.1.2,Win32,60,5fe17d4a51f3a9c1a60f9869,,,,,,,,,,,,,,,,,,,1,PF,,2,1.805835,,,,,,,,,,,,,,,,,,,,,,,,,,,,,,,,,,-95,-70,1,0,0,response5disk,9,4,-12,-4,1,0,0,rectangle,-12,-4,1,0,0,1,3,"[3,220,225,91,201,33,145,146,141,168,201,73,269,79,123,44,28,245,187,150]",-12,-4,1,0,0,0,3,3,15,1,,,,,,,,,,,,,,,,,,,,,,,
,,,,,,,,,,,,,,,,,,,,,,,,,,,,,,,,,,,,,,,,,,,5ee9e9d06580b8000940f89f,5fe1a6f32fbe51c368aa13ec,2020-12-22_08h58.00.575,FlowerSimilarity_Experiment,2020.1.2,Win32,60,5fe17d4a51f3a9c1a60f9869,,,,,,,,,,,,,,,,,,,7,FF,,5,1.20538,,,,,,,,,,,,,,,,,,,,,,,,,,,,,,,,,,54,-35,1,0,0,response3disk,3,5,9,-5,1,0,0,rectangle,9,-5,1,0,0,1,1,"[3,220,225,91,201,33,145,146,141,168,201,73,269,79,123,44,28,245,187,150]",9,-5,1,0,0,0,4,4,73,1,,,,,,,,,,,,,,,,,,,,,,,
,,,,,,,,,,,,,,,,,,,,,,,,,,,,,,,,,,,,,,,,,,,5ee9e9d06580b8000940f89f,5fe1a6f32fbe51c368aa13ec,2020-12-22_08h58.00.575,FlowerSimilarity_Experiment,2020.1.2,Win32,60,5fe17d4a51f3a9c1a60f9869,,,,,,,,,,,,,,,,,,,7,PF,,2,2.027295,,,,,,,,,,,,,,,,,,,,,,,,,,,,,,,,,,-106,-48,1,0,0,response5disk,8,6,9,4,1,0,0,rectangle,9,4,1,0,0,1,1,"[3,220,225,91,201,33,145,146,141,168,201,73,269,79,123,44,28,245,187,150]",9,4,1,0,0,0,5,5,140,1,,,,,,,,,,,,,,,,,,,,,,,
,,,,,,,,,,,,,,,,,,,,,,,,,,,,,,,,,,,,,,,,,,,5ee9e9d06580b8000940f89f,5fe1a6f32fbe51c368aa13ec,2020-12-22_08h58.00.575,FlowerSimilarity_Experiment,2020.1.2,Win32,60,5fe17d4a51f3a9c1a60f9869,,,,,,,,,,,,,,,,,,,3,PF,,7,1.77721,,,,,,,,,,,,,,,,,,,,,,,,,,,,,,,,,,31,84,1,0,0,response1disk,9,7,-3,2,1,0,0,rectangle,-3,2,1,0,0,1,6,"[3,220,225,91,201,33,145,146,141,168,201,73,269,79,123,44,28,245,187,150]",-3,2,1,0,0,0,6,6,79,1,,,,,,,,,,,,,,,,,,,,,,,
,,,,,,,,,,,,,,,,,,,,,,,,,,,,,,,,,,,,,,,,,,,5ee9e9d06580b8000940f89f,5fe1a6f32fbe51c368aa13ec,2020-12-22_08h58.00.575,FlowerSimilarity_Experiment,2020.1.2,Win32,60,5fe17d4a51f3a9c1a60f9869,,,,,,,,,,,,,,,,,,,2,PF,,3,1.424545,,,,,,,,,,,,,,,,,,,,,,,,,,,,,,,,,,-44,-65,1,0,0,response5disk,1,8,4,11,1,0,0,rectangle,4,11,1,0,0,1,4,"[3,220,225,91,201,33,145,146,141,168,201,73,269,79,123,44,28,245,187,150]",4,11,1,0,0,0,7,7,9,1,,,,,,,,,,,,,,,,,,,,,,,
,,,,,,,,,,,,,,,,,,,,,,,,,,,,,,,,,,,,,,,,,,,5ee9e9d06580b8000940f89f,5fe1a6f32fbe51c368aa13ec,2020-12-22_08h58.00.575,FlowerSimilarity_Experiment,2020.1.2,Win32,60,5fe17d4a51f3a9c1a60f9869,,,,,,,,,,,,,,,,,,,2,FF,,0,2.43942,,,,,,,,,,,,,,,,,,,,,,,,,,,,,,,,,,-36,100,1,0,0,response7disk,2,9,5,0,1,0,0,rectangle,5,0,1,0,0,1,7,"[3,220,225,91,201,33,145,146,141,168,201,73,269,79,123,44,28,245,187,150]",5,0,1,0,0,0,8,8,142,1,,,,,,,,,,,,,,,,,,,,,,,
,,,,,,,,,,,,,,,,,,,,,,,,,,,,,,,,,,,,,,,,,,,5ee9e9d06580b8000940f89f,5fe1a6f32fbe51c368aa13ec,2020-12-22_08h58.00.575,FlowerSimilarity_Experiment,2020.1.2,Win32,60,5fe17d4a51f3a9c1a60f9869,,,,,,,,,,,,,,,,,,,6,FF,,5,2.95512,,,,,,,,,,,,,,,,,,,,,,,,,,,,,,,,,,50,-37,1,0,0,response3disk,6,10,-1,5,1,0,0,rectangle,-1,5,1,0,0,1,0,"[3,220,225,91,201,33,145,146,141,168,201,73,269,79,123,44,28,245,187,150]",-1,5,1,0,0,0,9,9,91,1,,,,,,,,,,,,,,,,,,,,,,,
,,,,,,,,,,,,,,,,,,,,,,,,,,,,,,,,,,,,,,,,,,,5ee9e9d06580b8000940f89f,5fe1a6f32fbe51c368aa13ec,2020-12-22_08h58.00.575,FlowerSimilarity_Experiment,2020.1.2,Win32,60,5fe17d4a51f3a9c1a60f9869,,,,,,,,,,,,,,,,,,,9,FF,,7,1.224025,,,,,,,,,,,,,,,,,,,,,,,,,,,,,,,,,,41,99,1,0,0,response1disk,8,11,-22,-4,1,0,0,rectangle,-22,-4,1,0,0,1,7,"[3,220,225,91,201,33,145,146,141,168,201,73,269,79,123,44,28,245,187,150]",-22,-4,1,0,0,0,10,10,6,1,,,,,,,,,,,,,,,,,,,,,,,
,,,,,,,,,,,,,,,,,,,,,,,,,,,,,,,,,,,,,,,,,,,5ee9e9d06580b8000940f89f,5fe1a6f32fbe51c368aa13ec,2020-12-22_08h58.00.575,FlowerSimilarity_Experiment,2020.1.2,Win32,60,5fe17d4a51f3a9c1a60f9869,,,,,,,,,,,,,,,,,,,7,FF,,7,1.84856,,,,,,,,,,,,,,,,,,,,,,,,,,,,,,,,,,27,71,1,0,0,response1disk,5,12,-6,3,1,0,0,rectangle,-6,3,1,0,0,1,3,"[3,220,225,91,201,33,145,146,141,168,201,73,269,79,123,44,28,245,187,150]",-6,3,1,0,0,0,11,11,156,1,,,,,,,,,,,,,,,,,,,,,,,
,,,,,,,,,,,,,,,,,,,,,,,,,,,,,,,,,,,,,,,,,,,5ee9e9d06580b8000940f89f,5fe1a6f32fbe51c368aa13ec,2020-12-22_08h58.00.575,FlowerSimilarity_Experiment,2020.1.2,Win32,60,5fe17d4a51f3a9c1a60f9869,,,,,,,,,,,,,,,,,,,5,PF,,3,4.087355,,,,,,,,,,,,,,,,,,,,,,,,,,,,,,,,,,-57,-101,1,0,0,response5disk,5,13,4,2,1,0,0,rectangle,4,2,1,0,0,1,1,"[3,220,225,91,201,33,145,146,141,168,201,73,269,79,123,44,28,245,187,150]",4,2,1,0,0,0,12,12,94,1,,,,,,,,,,,,,,,,,,,,,,,
,,,,,,,,,,,,,,,,,,,,,,,,,,,,,,,,,,,,,,,,,,,5ee9e9d06580b8000940f89f,5fe1a6f32fbe51c368aa13ec,2020-12-22_08h58.00.575,FlowerSimilarity_Experiment,2020.1.2,Win32,60,5fe17d4a51f3a9c1a60f9869,,,,,,,,,,,,,,,,,,,3,FF,,1,2.0701,,,,,,,,,,,,,,,,,,,,,,,,,,,,,,,,,,-82,44,1,0,0,response7disk,7,14,-6,0,1,0,0,rectangle,-6,0,1,0,0,1,7,"[3,220,225,91,201,33,145,146,141,168,201,73,269,79,123,44,28,245,187,150]",-6,0,1,0,0,0,13,13,118,1,,,,,,,,,,,,,,,,,,,,,,,
,,,,,,,,,,,,,,,,,,,,,,,,,,,,,,,,,,,,,,,,,,,5ee9e9d06580b8000940f89f,5fe1a6f32fbe51c368aa13ec,2020-12-22_08h58.00.575,FlowerSimilarity_Experiment,2020.1.2,Win32,60,5fe17d4a51f3a9c1a60f9869,,,,,,,,,,,,,,,,,,,3,FF,,5,2.15296,,,,,,,,,,,,,,,,,,,,,,,,,,,,,,,,,,86,-73,1,0,0,response3disk,2,15,9,-2,1,0,0,rectangle,9,-2,1,0,0,1,4,"[3,220,225,91,201,33,145,146,141,168,201,73,269,79,123,44,28,245,187,150]",9,-2,1,0,0,0,14,14,93,1,,,,,,,,,,,,,,,,,,,,,,,
,,,,,,,,,,,,,,,,,,,,,,,,,,,,,,,,,,,,,,,,,,,5ee9e9d06580b8000940f89f,5fe1a6f32fbe51c368aa13ec,2020-12-22_08h58.00.575,FlowerSimilarity_Experiment,2020.1.2,Win32,60,5fe17d4a51f3a9c1a60f9869,,,,,,,,,,,,,,,,,,,2,PF,,7,1.674115,,,,,,,,,,,,,,,,,,,,,,,,,,,,,,,,,,55,84,1,0,0,response1disk,6,16,19,-2,1,0,0,rectangle,19,-2,1,0,0,1,6,"[3,220,225,91,201,33,145,146,141,168,201,73,269,79,123,44,28,245,187,150]",19,-2,1,0,0,0,15,15,113,1,,,,,,,,,,,,,,,,,,,,,,,
,,,,,,,,,,,,,,,,,,,,,,,,,,,,,,,,,,,,,,,,,,,5ee9e9d06580b8000940f89f,5fe1a6f32fbe51c368aa13ec,2020-12-22_08h58.00.575,FlowerSimilarity_Experiment,2020.1.2,Win32,60,5fe17d4a51f3a9c1a60f9869,,,,,,,,,,,,,,,,,,,4,FF,,7,1.072175,,,,,,,,,,,,,,,,,,,,,,,,,,,,,,,,,,49,120,1,0,0,response1disk,6,17,1,5,1,0,0,rectangle,1,5,1,0,0,1,6,"[3,220,225,91,201,33,145,146,141,168,201,73,269,79,123,44,28,245,187,150]",1,5,1,0,0,0,16,16,122,1,,,,,,,,,,,,,,,,,,,,,,,
,,,,,,,,,,,,,,,,,,,,,,,,,,,,,,,,,,,,,,,,,,,5ee9e9d06580b8000940f89f,5fe1a6f32fbe51c368aa13ec,2020-12-22_08h58.00.575,FlowerSimilarity_Experiment,2020.1.2,Win32,60,5fe17d4a51f3a9c1a60f9869,,,,,,,,,,,,,,,,,,,6,FF,,3,1.738935,,,,,,,,,,,,,,,,,,,,,,,,,,,,,,,,,,-26,-87,1,0,0,response5disk,1,18,14,5,1,0,0,rectangle,14,5,1,0,0,1,1,"[3,220,225,91,201,33,145,146,141,168,201,73,269,79,123,44,28,245,187,150]",14,5,1,0,0,0,17,17,5,1,,,,,,,,,,,,,,,,,,,,,,,
,,,,,,,,,,,,,,,,,,,,,,,,,,,,,,,,,,,,,,,,,,,5ee9e9d06580b8000940f89f,5fe1a6f32fbe51c368aa13ec,2020-12-22_08h58.00.575,FlowerSimilarity_Experiment,2020.1.2,Win32,60,5fe17d4a51f3a9c1a60f9869,,,,,,,,,,,,,,,,,,,8,PF,,4,4.18249,,,,,,,,,,,,,,,,,,,,,,,,,,,,,,,,,,46,-119,1,0,0,response3disk,7,19,-6,3,1,0,0,rectangle,-6,3,1,0,0,1,5,"[3,220,225,91,201,33,145,146,141,168,201,73,269,79,123,44,28,245,187,150]",-6,3,1,0,0,0,18,18,23,1,,,,,,,,,,,,,,,,,,,,,,,
,,,,,,,,,,,,,,,,,,,,,,,,,,,,,,,,,,,,,,,,,,,5ee9e9d06580b8000940f89f,5fe1a6f32fbe51c368aa13ec,2020-12-22_08h58.00.575,FlowerSimilarity_Experiment,2020.1.2,Win32,60,5fe17d4a51f3a9c1a60f9869,,,,,,,,,,,,,,,,,,,5,FF,,4,1.11161,,,,,,,,,,,,,,,,,,,,,,,,,,,,,,,,,,48,-70,1,0,0,response3disk,7,20,6,-1,1,0,0,rectangle,6,-1,1,0,0,1,6,"[3,220,225,91,201,33,145,146,141,168,201,73,269,79,123,44,28,245,187,150]",6,-1,1,0,0,0,19,19,7,1,,,,,,,,,,,,,,,,,,,,,,,
,,,,,,,,,,,,,,,,,,,,,,,,,,,,,,,,,,,,,,,,,,,5ee9e9d06580b8000940f89f,5fe1a6f32fbe51c368aa13ec,2020-12-22_08h58.00.575,FlowerSimilarity_Experiment,2020.1.2,Win32,60,5fe17d4a51f3a9c1a60f9869,,,,,,,,,,,,,,,,,,,3,PF,,0,1.6846,,,,,,,,,,,,,,,,,,,,,,,,,,,,,,,,,,-57,118,1,0,0,response7disk,7,21,1,0,1,0,0,rectangle,1,0,1,0,0,1,4,"[3,220,225,91,201,33,145,146,141,168,201,73,269,79,123,44,28,245,187,150]",1,0,1,0,0,0,20,20,41,1,,,,,,,,,,,,,,,,,,,,,,,
,,,,,,,,,,,,,,,,,,,,,,,,,,,,,,,,,,,,,,,,,,,5ee9e9d06580b8000940f89f,5fe1a6f32fbe51c368aa13ec,2020-12-22_08h58.00.575,FlowerSimilarity_Experiment,2020.1.2,Win32,60,5fe17d4a51f3a9c1a60f9869,,,,,,,,,,,,,,,,,,,9,PF,,3,1.450425,,,,,,,,,,,,,,,,,,,,,,,,,,,,,,,,,,-34,-72,1,0,0,response5disk,1,22,-1,2,1,0,0,rectangle,-1,2,1,0,0,1,1,"[3,220,225,91,201,33,145,146,141,168,201,73,269,79,123,44,28,245,187,150]",-1,2,1,0,0,0,21,21,74,1,,,,,,,,,,,,,,,,,,,,,,,
,,,,,,,,,,,,,,,,,,,,,,,,,,,,,,,,,,,,,,,,,,,5ee9e9d06580b8000940f89f,5fe1a6f32fbe51c368aa13ec,2020-12-22_08h58.00.575,FlowerSimilarity_Experiment,2020.1.2,Win32,60,5fe17d4a51f3a9c1a60f9869,,,,,,,,,,,,,,,,,,,8,PF,,7,1.842245,,,,,,,,,,,,,,,,,,,,,,,,,,,,,,,,,,63,109,1,0,0,response1disk,6,23,20,-4,1,0,0,rectangle,20,-4,1,0,0,1,2,"[3,220,225,91,201,33,145,146,141,168,201,73,269,79,123,44,28,245,187,150]",20,-4,1,0,0,0,22,22,161,1,,,,,,,,,,,,,,,,,,,,,,,
,,,,,,,,,,,,,,,,,,,,,,,,,,,,,,,,,,,,,,,,,,,5ee9e9d06580b8000940f89f,5fe1a6f32fbe51c368aa13ec,2020-12-22_08h58.00.575,FlowerSimilarity_Experiment,2020.1.2,Win32,60,5fe17d4a51f3a9c1a60f9869,,,,,,,,,,,,,,,,,,,6,PF,,5,4.55636,,,,,,,,,,,,,,,,,,,,,,,,,,,,,,,,,,94,-56,1,0,0,response3disk,3,24,-10,-15,1,0,0,rectangle,-10,-15,1,0,0,1,7,"[3,220,225,91,201,33,145,146,141,168,201,73,269,79,123,44,28,245,187,150]",-10,-15,1,0,0,0,23,23,26,1,,,,,,,,,,,,,,,,,,,,,,,
,,,,,,,,,,,,,,,,,,,,,,,,,,,,,,,,,,,,,,,,,,,5ee9e9d06580b8000940f89f,5fe1a6f32fbe51c368aa13ec,2020-12-22_08h58.00.575,FlowerSimilarity_Experiment,2020.1.2,Win32,60,5fe17d4a51f3a9c1a60f9869,,,,,,,,,,,,,,,,,,,5,PF,,7,2.124635,,,,,,,,,,,,,,,,,,,,,,,,,,,,,,,,,,47,75,1,0,0,response1disk,1,25,11,9,1,0,0,rectangle,11,9,1,0,0,1,4,"[3,220,225,91,201,33,145,146,141,168,201,73,269,79,123,44,28,245,187,150]",11,9,1,0,0,0,24,24,159,1,,,,,,,,,,,,,,,,,,,,,,,
,,,,,,,,,,,,,,,,,,,,,,,,,,,,,,,,,,,,,,,,,,,5ee9e9d06580b8000940f89f,5fe1a6f32fbe51c368aa13ec,2020-12-22_08h58.00.575,FlowerSimilarity_Experiment,2020.1.2,Win32,60,5fe17d4a51f3a9c1a60f9869,,,,,,,,,,,,,,,,,,,3,PF,,7,1.445065,,,,,,,,,,,,,,,,,,,,,,,,,,,,,,,,,,55,92,1,0,0,response1disk,6,26,5,-1,1,0,0,rectangle,5,-1,1,0,0,1,3,"[3,220,225,91,201,33,145,146,141,168,201,73,269,79,123,44,28,245,187,150]",5,-1,1,0,0,0,25,25,47,1,,,,,,,,,,,,,,,,,,,,,,,
,,,,,,,,,,,,,,,,,,,,,,,,,,,,,,,,,,,,,,,,,,,5ee9e9d06580b8000940f89f,5fe1a6f32fbe51c368aa13ec,2020-12-22_08h58.00.575,FlowerSimilarity_Experiment,2020.1.2,Win32,60,5fe17d4a51f3a9c1a60f9869,,,,,,,,,,,,,,,,,,,7,PF,,0,1.243435,,,,,,,,,,,,,,,,,,,,,,,,,,,,,,,,,,-48,90,1,0,0,response7disk,7,27,10,9,1,0,0,rectangle,10,9,1,0,0,1,2,"[3,220,225,91,201,33,145,146,141,168,201,73,269,79,123,44,28,245,187,150]",10,9,1,0,0,0,26,26,51,1,,,,,,,,,,,,,,,,,,,,,,,
,,,,,,,,,,,,,,,,,,,,,,,,,,,,,,,,,,,,,,,,,,,5ee9e9d06580b8000940f89f,5fe1a6f32fbe51c368aa13ec,2020-12-22_08h58.00.575,FlowerSimilarity_Experiment,2020.1.2,Win32,60,5fe17d4a51f3a9c1a60f9869,,,,,,,,,,,,,,,,,,,7,FF,,6,1.6796,,,,,,,,,,,,,,,,,,,,,,,,,,,,,,,,,,53,26,1,0,0,response1disk,2,28,-29,-5,1,0,0,rectangle,63,-111,1,0,0,4,4,"[3,220,225,91,201,33,145,146,141,168,201,73,269,79,123,44,28,245,187,150]",13,-4,1,0,0,0,27,27,138,1,response3disk_3,rectangle,,,,,,,,,,,,,,,,,,,,,
,,,,,,,,,,,,,,,,,,,,,,,,,,,,,,,,,,,,,,,,,,,5ee9e9d06580b8000940f89f,5fe1a6f32fbe51c368aa13ec,2020-12-22_08h58.00.575,FlowerSimilarity_Experiment,2020.1.2,Win32,60,5fe17d4a51f3a9c1a60f9869,,,,,,,,,,,,,,,,,,,8,FF,,6,2.61436,,,,,,,,,,,,,,,,,,,,,,,,,,,,,,,,,,106,55,1,0,0,response1disk,1,29,13,0,1,0,0,rectangle,13,0,1,0,0,4,1,"[3,220,225,91,201,33,145,146,141,168,201,73,269,79,123,44,28,245,187,150]",13,0,1,0,0,0,28,28,20,1,,,,,,,,,,,,,,,,,,,,,,,
,,,,,,,,,,,,,,,,,,,,,,,,,,,,,,,,,,,,,,,,,,,5ee9e9d06580b8000940f89f,5fe1a6f32fbe51c368aa13ec,2020-12-22_08h58.00.575,FlowerSimilarity_Experiment,2020.1.2,Win32,60,5fe17d4a51f3a9c1a60f9869,,,,,,,,,,,,,,,,,,,7,PF,,3,4.30693,,,,,,,,,,,,,,,,,,,,,,,,,,,,,,,,,,-39,-96,1,0,0,response5disk,4,30,0,-14,1,0,0,rectangle,0,-14,1,0,0,4,3,"[3,220,225,91,201,33,145,146,141,168,201,73,269,79,123,44,28,245,187,150]",0,-14,1,0,0,0,29,29,43,1,,,,,,,,,,,,,,,,,,,,,,,
,,,,,,,,,,,,,,,,,,,,,,,,,,,,,,,,,,,,,,,,,,,5ee9e9d06580b8000940f89f,5fe1a6f32fbe51c368aa13ec,2020-12-22_08h58.00.575,FlowerSimilarity_Experiment,2020.1.2,Win32,60,5fe17d4a51f3a9c1a60f9869,,,,,,,,,,,,,,,,,,,4,FF,,4,1.67988,,,,,,,,,,,,,,,,,,,,,,,,,,,,,,,,,,47,-69,1,0,0,response3disk,2,31,-9,-2,1,0,0,rectangle,-9,-2,1,0,0,4,1,"[3,220,225,91,201,33,145,146,141,168,201,73,269,79,123,44,28,245,187,150]",-9,-2,1,0,0,0,30,30,13,1,,,,,,,,,,,,,,,,,,,,,,,
,,,,,,,,,,,,,,,,,,,,,,,,,,,,,,,,,,,,,,,,,,,5ee9e9d06580b8000940f89f,5fe1a6f32fbe51c368aa13ec,2020-12-22_08h58.00.575,FlowerSimilarity_Experiment,2020.1.2,Win32,60,5fe17d4a51f3a9c1a60f9869,,,,,,,,,,,,,,,,,,,7,FF,,7,1.40168,,,,,,,,,,,,,,,,,,,,,,,,,,,,,,,,,,47,102,1,0,0,response1disk,9,32,16,-3,1,0,0,rectangle,16,-3,1,0,0,4,0,"[3,220,225,91,201,33,145,146,141,168,201,73,269,79,123,44,28,245,187,150]",16,-3,1,0,0,0,31,31,155,1,,,,,,,,,,,,,,,,,,,,,,,
,,,,,,,,,,,,,,,,,,,,,,,,,,,,,,,,,,,,,,,,,,,5ee9e9d06580b8000940f89f,5fe1a6f32fbe51c368aa13ec,2020-12-22_08h58.00.575,FlowerSimilarity_Experiment,2020.1.2,Win32,60,5fe17d4a51f3a9c1a60f9869,,,,,,,,,,,,,,,,,,,8,FF,,5,1.284715,,,,,,,,,,,,,,,,,,,,,,,,,,,,,,,,,,72,-39,1,0,0,response3disk,5,33,-13,-3,1,0,0,rectangle,75,-100,1,0,0,4,4,"[3,220,225,91,201,33,145,146,141,168,201,73,269,79,123,44,28,245,187,150]",-2,-8,1,0,0,0,32,32,152,1,response3disk_3,rectangle,,,,,,,,,,,,,,,,,,,,,
,,,,,,,,,,,,,,,,,,,,,,,,,,,,,,,,,,,,,,,,,,,5ee9e9d06580b8000940f89f,5fe1a6f32fbe51c368aa13ec,2020-12-22_08h58.00.575,FlowerSimilarity_Experiment,2020.1.2,Win32,60,5fe17d4a51f3a9c1a60f9869,,,,,,,,,,,,,,,,,,,3,PF,,3,6.388675,,,,,,,,,,,,,,,,,,,,,,,,,,,,,,,,,,-49,-107,1,0,0,response5disk,1,34,-3,5,1,0,0,rectangle,-3,5,1,0,0,4,7,"[3,220,225,91,201,33,145,146,141,168,201,73,269,79,123,44,28,245,187,150]",-3,5,1,0,0,0,33,33,96,1,,,,,,,,,,,,,,,,,,,,,,,
,,,,,,,,,,,,,,,,,,,,,,,,,,,,,,,,,,,,,,,,,,,5ee9e9d06580b8000940f89f,5fe1a6f32fbe51c368aa13ec,2020-12-22_08h58.00.575,FlowerSimilarity_Experiment,2020.1.2,Win32,60,5fe17d4a51f3a9c1a60f9869,,,,,,,,,,,,,,,,,,,5,FF,,5,1.317995,,,,,,,,,,,,,,,,,,,,,,,,,,,,,,,,,,106,-44,1,0,0,response3disk,6,35,-8,10,1,0,0,rectangle,-8,10,1,0,0,4,0,"[3,220,225,91,201,33,145,146,141,168,201,73,269,79,123,44,28,245,187,150]",-8,10,1,0,0,0,34,34,12,1,,,,,,,,,,,,,,,,,,,,,,,
,,,,,,,,,,,,,,,,,,,,,,,,,,,,,,,,,,,,,,,,,,,5ee9e9d06580b8000940f89f,5fe1a6f32fbe51c368aa13ec,2020-12-22_08h58.00.575,FlowerSimilarity_Experiment,2020.1.2,Win32,60,5fe17d4a51f3a9c1a60f9869,,,,,,,,,,,,,,,,,,,3,FF,,7,1.28451,,,,,,,,,,,,,,,,,,,,,,,,,,,,,,,,,,65,113,1,0,0,response1disk,1,36,9,1,1,0,0,rectangle,9,1,1,0,0,4,7,"[3,220,225,91,201,33,145,146,141,168,201,73,269,79,123,44,28,245,187,150]",9,1,1,0,0,0,35,35,125,1,,,,,,,,,,,,,,,,,,,,,,,
,,,,,,,,,,,,,,,,,,,,,,,,,,,,,,,,,,,,,,,,,,,5ee9e9d06580b8000940f89f,5fe1a6f32fbe51c368aa13ec,2020-12-22_08h58.00.575,FlowerSimilarity_Experiment,2020.1.2,Win32,60,5fe17d4a51f3a9c1a60f9869,,,,,,,,,,,,,,,,,,,1,FF,,7,0.768715,,,,,,,,,,,,,,,,,,,,,,,,,,,,,,,,,,72,126,1,0,0,response1disk,5,37,-2,1,1,0,0,rectangle,-2,1,1,0,0,4,3,"[3,220,225,91,201,33,145,146,141,168,201,73,269,79,123,44,28,245,187,150]",-2,1,1,0,0,0,36,36,82,1,,,,,,,,,,,,,,,,,,,,,,,
,,,,,,,,,,,,,,,,,,,,,,,,,,,,,,,,,,,,,,,,,,,5ee9e9d06580b8000940f89f,5fe1a6f32fbe51c368aa13ec,2020-12-22_08h58.00.575,FlowerSimilarity_Experiment,2020.1.2,Win32,60,5fe17d4a51f3a9c1a60f9869,,,,,,,,,,,,,,,,,,,7,FF,,4,1.35123,,,,,,,,,,,,,,,,,,,,,,,,,,,,,,,,,,78,-85,1,0,0,response3disk,8,38,25,12,1,0,0,rectangle,25,12,1,0,0,4,7,"[3,220,225,91,201,33,145,146,141,168,201,73,269,79,123,44,28,245,187,150]",25,12,1,0,0,0,37,37,97,1,,,,,,,,,,,,,,,,,,,,,,,
,,,,,,,,,,,,,,,,,,,,,,,,,,,,,,,,,,,,,,,,,,,5ee9e9d06580b8000940f89f,5fe1a6f32fbe51c368aa13ec,2020-12-22_08h58.00.575,FlowerSimilarity_Experiment,2020.1.2,Win32,60,5fe17d4a51f3a9c1a60f9869,,,,,,,,,,,,,,,,,,,5,FF,,5,1.01793,,,,,,,,,,,,,,,,,,,,,,,,,,,,,,,,,,109,-51,1,0,0,response3disk,1,39,-9,-9,1,0,0,rectangle,-9,-9,1,0,0,4,5,"[3,220,225,91,201,33,145,146,141,168,201,73,269,79,123,44,28,245,187,150]",-9,-9,1,0,0,0,38,38,131,1,,,,,,,,,,,,,,,,,,,,,,,
,,,,,,,,,,,,,,,,,,,,,,,,,,,,,,,,,,,,,,,,,,,5ee9e9d06580b8000940f89f,5fe1a6f32fbe51c368aa13ec,2020-12-22_08h58.00.575,FlowerSimilarity_Experiment,2020.1.2,Win32,60,5fe17d4a51f3a9c1a60f9869,,,,,,,,,,,,,,,,,,,2,FF,,4,1.08419,,,,,,,,,,,,,,,,,,,,,,,,,,,,,,,,,,67,-97,1,0,0,response3disk,1,40,-2,11,1,0,0,rectangle,-2,11,1,0,0,4,2,"[3,220,225,91,201,33,145,146,141,168,201,73,269,79,123,44,28,245,187,150]",-2,11,1,0,0,0,39,39,85,1,,,,,,,,,,,,,,,,,,,,,,,
,,,,,,,,,,,,,,,,,,,,,,,,,,,,,,,,,,,,,,,,,,,5ee9e9d06580b8000940f89f,5fe1a6f32fbe51c368aa13ec,2020-12-22_08h58.00.575,FlowerSimilarity_Experiment,2020.1.2,Win32,60,5fe17d4a51f3a9c1a60f9869,,,,,,,,,,,,,,,,,,,5,FF,,3,0.950985,,,,,,,,,,,,,,,,,,,,,,,,,,,,,,,,,,-40,-96,1,0,0,response5disk,8,41,-13,2,1,0,0,rectangle,-13,2,1,0,0,4,5,"[3,220,225,91,201,33,145,146,141,168,201,73,269,79,123,44,28,245,187,150]",-13,2,1,0,0,0,40,40,16,1,,,,,,,,,,,,,,,,,,,,,,,
,,,,,,,,,,,,,,,,,,,,,,,,,,,,,,,,,,,,,,,,,,,5ee9e9d06580b8000940f89f,5fe1a6f32fbe51c368aa13ec,2020-12-22_08h58.00.575,FlowerSimilarity_Experiment,2020.1.2,Win32,60,5fe17d4a51f3a9c1a60f9869,,,,,,,,,,,,,,,,,,,8,FF,,0,1.11781,,,,,,,,,,,,,,,,,,,,,,,,,,,,,,,,,,-53,129,1,0,0,response7disk,8,42,11,-10,1,0,0,rectangle,11,-10,1,0,0,4,5,"[3,220,225,91,201,33,145,146,141,168,201,73,269,79,123,44,28,245,187,150]",11,-10,1,0,0,0,41,41,48,1,,,,,,,,,,,,,,,,,,,,,,,
,,,,,,,,,,,,,,,,,,,,,,,,,,,,,,,,,,,,,,,,,,,5ee9e9d06580b8000940f89f,5fe1a6f32fbe51c368aa13ec,2020-12-22_08h58.00.575,FlowerSimilarity_Experiment,2020.1.2,Win32,60,5fe17d4a51f3a9c1a60f9869,,,,,,,,,,,,,,,,,,,9,FF,,1,1.668365,,,,,,,,,,,,,,,,,,,,,,,,,,,,,,,,,,-104,53,1,0,0,response7disk,6,43,-22,11,1,0,0,rectangle,-22,11,1,0,0,4,6,"[3,220,225,91,201,33,145,146,141,168,201,73,269,79,123,44,28,245,187,150]",-22,11,1,0,0,0,42,42,117,1,,,,,,,,,,,,,,,,,,,,,,,
,,,,,,,,,,,,,,,,,,,,,,,,,,,,,,,,,,,,,,,,,,,5ee9e9d06580b8000940f89f,5fe1a6f32fbe51c368aa13ec,2020-12-22_08h58.00.575,FlowerSimilarity_Experiment,2020.1.2,Win32,60,5fe17d4a51f3a9c1a60f9869,,,,,,,,,,,,,,,,,,,4,PF,,7,1.28484,,,,,,,,,,,,,,,,,,,,,,,,,,,,,,,,,,53,112,1,0,0,response1disk,8,44,8,7,1,0,0,rectangle,73,101,1,0,0,7,7,"[3,220,225,91,201,33,145,146,141,168,201,73,269,79,123,44,28,245,187,150]",7,-1,1,0,0,0,43,43,124,1,response1disk_3,rectangle,,,,,,,,,,,,,,,,,,,,,
,,,,,,,,,,,,,,,,,,,,,,,,,,,,,,,,,,,,,,,,,,,5ee9e9d06580b8000940f89f,5fe1a6f32fbe51c368aa13ec,2020-12-22_08h58.00.575,FlowerSimilarity_Experiment,2020.1.2,Win32,60,5fe17d4a51f3a9c1a60f9869,,,,,,,,,,,,,,,,,,,8,FF,,4,6.20491,,,,,,,,,,,,,,,,,,,,,,,,,,,,,,,,,,88,-101,1,0,0,response3disk,9,45,17,8,1,0,0,rectangle,17,8,1,0,0,7,1,"[3,220,225,91,201,33,145,146,141,168,201,73,269,79,123,44,28,245,187,150]",17,8,1,0,0,0,44,44,105,1,,,,,,,,,,,,,,,,,,,,,,,
,,,,,,,,,,,,,,,,,,,,,,,,,,,,,,,,,,,,,,,,,,,5ee9e9d06580b8000940f89f,5fe1a6f32fbe51c368aa13ec,2020-12-22_08h58.00.575,FlowerSimilarity_Experiment,2020.1.2,Win32,60,5fe17d4a51f3a9c1a60f9869,,,,,,,,,,,,,,,,,,,9,FF,,6,1.61823,,,,,,,,,,,,,,,,,,,,,,,,,,,,,,,,,,76,19,1,0,0,response1disk,5,46,10,-4,1,0,0,rectangle,10,-4,1,0,0,7,1,"[3,220,225,91,201,33,145,146,141,168,201,73,269,79,123,44,28,245,187,150]",10,-4,1,0,0,0,45,45,128,1,,,,,,,,,,,,,,,,,,,,,,,
,,,,,,,,,,,,,,,,,,,,,,,,,,,,,,,,,,,,,,,,,,,5ee9e9d06580b8000940f89f,5fe1a6f32fbe51c368aa13ec,2020-12-22_08h58.00.575,FlowerSimilarity_Experiment,2020.1.2,Win32,60,5fe17d4a51f3a9c1a60f9869,,,,,,,,,,,,,,,,,,,8,PF,,6,1.634935,,,,,,,,,,,,,,,,,,,,,,,,,,,,,,,,,,105,67,1,0,0,response1disk,2,47,2,3,1,0,0,rectangle,2,3,1,0,0,7,5,"[3,220,225,91,201,33,145,146,141,168,201,73,269,79,123,44,28,245,187,150]",2,3,1,0,0,0,46,46,83,1,,,,,,,,,,,,,,,,,,,,,,,
,,,,,,,,,,,,,,,,,,,,,,,,,,,,,,,,,,,,,,,,,,,5ee9e9d06580b8000940f89f,5fe1a6f32fbe51c368aa13ec,2020-12-22_08h58.00.575,FlowerSimilarity_Experiment,2020.1.2,Win32,60,5fe17d4a51f3a9c1a60f9869,,,,,,,,,,,,,,,,,,,5,PF,,6,1.68501,,,,,,,,,,,,,,,,,,,,,,,,,,,,,,,,,,64,39,1,0,0,response1disk,9,48,-12,-10,1,0,0,rectangle,-12,-10,1,0,0,7,4,"[3,220,225,91,201,33,145,146,141,168,201,73,269,79,123,44,28,245,187,150]",-12,-10,1,0,0,0,47,47,136,1,,,,,,,,,,,,,,,,,,,,,,,
,,,,,,,,,,,,,,,,,,,,,,,,,,,,,,,,,,,,,,,,,,,5ee9e9d06580b8000940f89f,5fe1a6f32fbe51c368aa13ec,2020-12-22_08h58.00.575,FlowerSimilarity_Experiment,2020.1.2,Win32,60,5fe17d4a51f3a9c1a60f9869,,,,,,,,,,,,,,,,,,,8,FF,,5,2.87258,,,,,,,,,,,,,,,,,,,,,,,,,,,,,,,,,,117,-72,1,0,0,response3disk,4,49,23,0,1,0,0,rectangle,23,0,1,0,0,7,0,"[3,220,225,91,201,33,145,146,141,168,201,73,269,79,123,44,28,245,187,150]",23,0,1,0,0,0,48,48,88,1,,,,,,,,,,,,,,,,,,,,,,,
,,,,,,,,,,,,,,,,,,,,,,,,,,,,,,,,,,,,,,,,,,,5ee9e9d06580b8000940f89f,5fe1a6f32fbe51c368aa13ec,2020-12-22_08h58.00.575,FlowerSimilarity_Experiment,2020.1.2,Win32,60,5fe17d4a51f3a9c1a60f9869,,,,,,,,,,,,,,,,,,,3,PF,,4,2.021315,,,,,,,,,,,,,,,,,,,,,,,,,,,,,,,,,,54,-109,1,0,0,response3disk,2,50,-7,19,1,0,0,rectangle,-7,19,1,0,0,7,0,"[3,220,225,91,201,33,145,146,141,168,201,73,269,79,123,44,28,245,187,150]",-7,19,1,0,0,0,49,49,36,1,,,,,,,,,,,,,,,,,,,,,,,
,,,,,,,,,,,,,,,,,,,,,,,,,,,,,,,,,,,,,,,,,,,5ee9e9d06580b8000940f89f,5fe1a6f32fbe51c368aa13ec,2020-12-22_08h58.00.575,FlowerSimilarity_Experiment,2020.1.2,Win32,60,5fe17d4a51f3a9c1a60f9869,,,,,,,,,,,,,,,,,,,1,PF,,7,1.686965,,,,,,,,,,,,,,,,,,,,,,,,,,,,,,,,,,73,99,1,0,0,response1disk,2,51,33,17,1,0,0,rectangle,33,17,1,0,0,7,0,"[3,220,225,91,201,33,145,146,141,168,201,73,269,79,123,44,28,245,187,150]",33,17,1,0,0,0,50,50,24,1,,,,,,,,,,,,,,,,,,,,,,,
,,,,,,,,,,,,,,,,,,,,,,,,,,,,,,,,,,,,,,,,,,,5ee9e9d06580b8000940f89f,5fe1a6f32fbe51c368aa13ec,2020-12-22_08h58.00.575,FlowerSimilarity_Experiment,2020.1.2,Win32,60,5fe17d4a51f3a9c1a60f9869,,,,,,,,,,,,,,,,,,,4,PF,,0,1.055855,,,,,,,,,,,,,,,,,,,,,,,,,,,,,,,,,,-65,108,1,0,0,response7disk,4,52,-14,-16,1,0,0,rectangle,-14,-16,1,0,0,7,0,"[3,220,225,91,201,33,145,146,141,168,201,73,269,79,123,44,28,245,187,150]",-14,-16,1,0,0,0,51,51,70,1,,,,,,,,,,,,,,,,,,,,,,,
,,,,,,,,,,,,,,,,,,,,,,,,,,,,,,,,,,,,,,,,,,,5ee9e9d06580b8000940f89f,5fe1a6f32fbe51c368aa13ec,2020-12-22_08h58.00.575,FlowerSimilarity_Experiment,2020.1.2,Win32,60,5fe17d4a51f3a9c1a60f9869,,,,,,,,,,,,,,,,,,,7,PF,,3,1.48484,,,,,,,,,,,,,,,,,,,,,,,,,,,,,,,,,,-36,-120,1,0,0,response5disk,3,53,-7,-5,1,0,0,rectangle,-7,-5,1,0,0,7,2,"[3,220,225,91,201,33,145,146,141,168,201,73,269,79,123,44,28,245,187,150]",-7,-5,1,0,0,0,52,52,81,1,,,,,,,,,,,,,,,,,,,,,,,
,,,,,,,,,,,,,,,,,,,,,,,,,,,,,,,,,,,,,,,,,,,5ee9e9d06580b8000940f89f,5fe1a6f32fbe51c368aa13ec,2020-12-22_08h58.00.575,FlowerSimilarity_Experiment,2020.1.2,Win32,60,5fe17d4a51f3a9c1a60f9869,,,,,,,,,,,,,,,,,,,1,PF,,3,2.669475,,,,,,,,,,,,,,,,,,,,,,,,,,,,,,,,,,-45,-106,1,0,0,response5disk,6,54,-12,-10,1,0,0,rectangle,-12,-10,1,0,0,7,5,"[3,220,225,91,201,33,145,146,141,168,201,73,269,79,123,44,28,245,187,150]",-12,-10,1,0,0,0,53,53,144,1,,,,,,,,,,,,,,,,,,,,,,,
,,,,,,,,,,,,,,,,,,,,,,,,,,,,,,,,,,,,,,,,,,,5ee9e9d06580b8000940f89f,5fe1a6f32fbe51c368aa13ec,2020-12-22_08h58.00.575,FlowerSimilarity_Experiment,2020.1.2,Win32,60,5fe17d4a51f3a9c1a60f9869,,,,,,,,,,,,,,,,,,,3,PF,,4,2.191575,,,,,,,,,,,,,,,,,,,,,,,,,,,,,,,,,,72,-123,1,0,0,response3disk,8,55,-26,-10,1,0,0,rectangle,-26,-10,1,0,0,7,3,"[3,220,225,91,201,33,145,146,141,168,201,73,269,79,123,44,28,245,187,150]",-26,-10,1,0,0,0,54,54,3,1,,,,,,,,,,,,,,,,,,,,,,,
,,,,,,,,,,,,,,,,,,,,,,,,,,,,,,,,,,,,,,,,,,,5ee9e9d06580b8000940f89f,5fe1a6f32fbe51c368aa13ec,2020-12-22_08h58.00.575,FlowerSimilarity_Experiment,2020.1.2,Win32,60,5fe17d4a51f3a9c1a60f9869,,,,,,,,,,,,,,,,,,,6,FF,,6,1.37287,,,,,,,,,,,,,,,,,,,,,,,,,,,,,,,,,,77,40,1,0,0,response1disk,5,56,-38,-20,1,0,0,rectangle,-38,-20,1,0,0,7,4,"[3,220,225,91,201,33,145,146,141,168,201,73,269,79,123,44,28,245,187,150]",-38,-20,1,0,0,0,55,55,126,1,,,,,,,,,,,,,,,,,,,,,,,
,,,,,,,,,,,,,,,,,,,,,,,,,,,,,,,,,,,,,,,,,,,5ee9e9d06580b8000940f89f,5fe1a6f32fbe51c368aa13ec,2020-12-22_08h58.00.575,FlowerSimilarity_Experiment,2020.1.2,Win32,60,5fe17d4a51f3a9c1a60f9869,,,,,,,,,,,,,,,,,,,4,FF,,0,0.919695,,,,,,,,,,,,,,,,,,,,,,,,,,,,,,,,,,-46,91,1,0,0,response7disk,4,57,-13,2,1,0,0,rectangle,-13,2,1,0,0,7,4,"[3,220,225,91,201,33,145,146,141,168,201,73,269,79,123,44,28,245,187,150]",-13,2,1,0,0,0,56,56,84,1,,,,,,,,,,,,,,,,,,,,,,,
,,,,,,,,,,,,,,,,,,,,,,,,,,,,,,,,,,,,,,,,,,,5ee9e9d06580b8000940f89f,5fe1a6f32fbe51c368aa13ec,2020-12-22_08h58.00.575,FlowerSimilarity_Experiment,2020.1.2,Win32,60,5fe17d4a51f3a9c1a60f9869,,,,,,,,,,,,,,,,,,,4,PF,,7,1.50118,,,,,,,,,,,,,,,,,,,,,,,,,,,,,,,,,,39,99,1,0,0,response1disk,6,58,-6,-5,1,0,0,rectangle,-6,-5,1,0,0,7,7,"[3,220,225,91,201,33,145,146,141,168,201,73,269,79,123,44,28,245,187,150]",-6,-5,1,0,0,0,57,57,120,1,,,,,,,,,,,,,,,,,,,,,,,
,,,,,,,,,,,,,,,,,,,,,,,,,,,,,,,,,,,,,,,,,,,5ee9e9d06580b8000940f89f,5fe1a6f32fbe51c368aa13ec,2020-12-22_08h58.00.575,FlowerSimilarity_Experiment,2020.1.2,Win32,60,5fe17d4a51f3a9c1a60f9869,,,,,,,,,,,,,,,,,,,9,FF,,6,2.289465,,,,,,,,,,,,,,,,,,,,,,,,,,,,,,,,,,87,26,1,0,0,response1disk,4,59,-40,-21,1,0,0,rectangle,-40,-21,1,0,0,7,7,"[3,220,225,91,201,33,145,146,141,168,201,73,269,79,123,44,28,245,187,150]",-40,-21,1,0,0,0,58,58,60,1,,,,,,,,,,,,,,,,,,,,,,,
,,,,,,,,,,,,,,,,,,,,,,,,,,,,,,,,,,,,,,,,,,,5ee9e9d06580b8000940f89f,5fe1a6f32fbe51c368aa13ec,2020-12-22_08h58.00.575,FlowerSimilarity_Experiment,2020.1.2,Win32,60,5fe17d4a51f3a9c1a60f9869,,,,,,,,,,,,,,,,,,,5,PF,,4,1.734745,,,,,,,,,,,,,,,,,,,,,,,,,,,,,,,,,,61,-129,1,0,0,response3disk,7,60,36,-4,1,0,0,rectangle,36,-4,1,0,0,7,6,"[3,220,225,91,201,33,145,146,141,168,201,73,269,79,123,44,28,245,187,150]",36,-4,1,0,0,0,59,59,146,1,,,,,,,,,,,,,,,,,,,,,,,
,,,,,,,,,,,,,,,,,,,,,,,,,,,,,,,,,,,,,,,,,,,5ee9e9d06580b8000940f89f,5fe1a6f32fbe51c368aa13ec,2020-12-22_08h58.00.575,FlowerSimilarity_Experiment,2020.1.2,Win32,60,5fe17d4a51f3a9c1a60f9869,,,,,,,,,,,,,,,,,,,4,PF,,6,1.05376,,,,,,,,,,,,,,,,,,,,,,,,,,,,,,,,,,61,53,1,0,0,response1disk,1,61,-8,-6,1,0,0,rectangle,-8,-6,1,0,0,7,3,"[3,220,225,91,201,33,145,146,141,168,201,73,269,79,123,44,28,245,187,150]",-8,-6,1,0,0,0,60,60,115,1,,,,,,,,,,,,,,,,,,,,,,,
,,,,,,,,,,,,,,,,,,,,,,,,,,,,,,,,,,,,,,,,,,,5ee9e9d06580b8000940f89f,5fe1a6f32fbe51c368aa13ec,2020-12-22_08h58.00.575,FlowerSimilarity_Experiment,2020.1.2,Win32,60,5fe17d4a51f3a9c1a60f9869,,,,,,,,,,,,,,,,,,,5,FF,,4,1.45375,,,,,,,,,,,,,,,,,,,,,,,,,,,,,,,,,,39,-105,1,0,0,response3disk,3,62,20,-9,1,0,0,rectangle,20,-9,1,0,0,7,7,"[3,220,225,91,201,33,145,146,141,168,201,73,269,79,123,44,28,245,187,150]",20,-9,1,0,0,0,61,61,25,1,,,,,,,,,,,,,,,,,,,,,,,
,,,,,,,,,,,,,,,,,,,,,,,,,,,,,,,,,,,,,,,,,,,5ee9e9d06580b8000940f89f,5fe1a6f32fbe51c368aa13ec,2020-12-22_08h58.00.575,FlowerSimilarity_Experiment,2020.1.2,Win32,60,5fe17d4a51f3a9c1a60f9869,,,,,,,,,,,,,,,,,,,4,FF,,7,2.019625,,,,,,,,,,,,,,,,,,,,,,,,,,,,,,,,,,40,76,1,0,0,response1disk,5,63,-3,-5,1,0,0,rectangle,-3,-5,1,0,0,7,4,"[3,220,225,91,201,33,145,146,141,168,201,73,269,79,123,44,28,245,187,150]",-3,-5,1,0,0,0,62,62,116,1,,,,,,,,,,,,,,,,,,,,,,,
,,,,,,,,,,,,,,,,,,,,,,,,,,,,,,,,,,,,,,,,,,,5ee9e9d06580b8000940f89f,5fe1a6f32fbe51c368aa13ec,2020-12-22_08h58.00.575,FlowerSimilarity_Experiment,2020.1.2,Win32,60,5fe17d4a51f3a9c1a60f9869,,,,,,,,,,,,,,,,,,,5,PF,,6,3.03678,,,,,,,,,,,,,,,,,,,,,,,,,,,,,,,,,,76,34,1,0,0,response1disk,2,64,-2,-1,1,0,0,rectangle,-2,-1,1,0,0,7,4,"[3,220,225,91,201,33,145,146,141,168,201,73,269,79,123,44,28,245,187,150]",-2,-1,1,0,0,0,63,63,129,1,,,,,,,,,,,,,,,,,,,,,,,
,,,,,,,,,,,,,,,,,,,,,,,,,,,,,,,,,,,,,,,,,,,5ee9e9d06580b8000940f89f,5fe1a6f32fbe51c368aa13ec,2020-12-22_08h58.00.575,FlowerSimilarity_Experiment,2020.1.2,Win32,60,5fe17d4a51f3a9c1a60f9869,,,,,,,,,,,,,,,,,,,2,PF,,4,1.970065,,,,,,,,,,,,,,,,,,,,,,,,,,,,,,,,,,47,-126,1,0,0,response3disk,4,65,-10,1,1,0,0,rectangle,-10,1,1,0,0,7,4,"[3,220,225,91,201,33,145,146,141,168,201,73,269,79,123,44,28,245,187,150]",-10,1,1,0,0,0,64,64,127,1,,,,,,,,,,,,,,,,,,,,,,,
,,,,,,,,,,,,,,,,,,,,,,,,,,,,,,,,,,,,,,,,,,,5ee9e9d06580b8000940f89f,5fe1a6f32fbe51c368aa13ec,2020-12-22_08h58.00.575,FlowerSimilarity_Experiment,2020.1.2,Win32,60,5fe17d4a51f3a9c1a60f9869,,,,,,,,,,,,,,,,,,,6,FF,,5,1.671725,,,,,,,,,,,,,,,,,,,,,,,,,,,,,,,,,,102,-64,1,0,0,response3disk,9,66,9,-16,1,0,0,rectangle,9,-16,1,0,0,7,2,"[3,220,225,91,201,33,145,146,141,168,201,73,269,79,123,44,28,245,187,150]",9,-16,1,0,0,0,65,65,160,1,,,,,,,,,,,,,,,,,,,,,,,
,,,,,,,,,,,,,,,,,,,,,,,,,,,,,,,,,,,,,,,,,,,5ee9e9d06580b8000940f89f,5fe1a6f32fbe51c368aa13ec,2020-12-22_08h58.00.575,FlowerSimilarity_Experiment,2020.1.2,Win32,60,5fe17d4a51f3a9c1a60f9869,,,,,,,,,,,,,,,,,,,5,FF,,3,2.28562,,,,,,,,,,,,,,,,,,,,,,,,,,,,,,,,,,-65,-99,1,0,0,response5disk,5,67,-4,3,1,0,0,rectangle,-4,3,1,0,0,7,1,"[3,220,225,91,201,33,145,146,141,168,201,73,269,79,123,44,28,245,187,150]",-4,3,1,0,0,0,66,66,19,1,,,,,,,,,,,,,,,,,,,,,,,
,,,,,,,,,,,,,,,,,,,,,,,,,,,,,,,,,,,,,,,,,,,5ee9e9d06580b8000940f89f,5fe1a6f32fbe51c368aa13ec,2020-12-22_08h58.00.575,FlowerSimilarity_Experiment,2020.1.2,Win32,60,5fe17d4a51f3a9c1a60f9869,,,,,,,,,,,,,,,,,,,5,FF,,7,1.28515,,,,,,,,,,,,,,,,,,,,,,,,,,,,,,,,,,65,94,1,0,0,response1disk,9,68,24,6,1,0,0,rectangle,24,6,1,0,0,7,2,"[3,220,225,91,201,33,145,146,141,168,201,73,269,79,123,44,28,245,187,150]",24,6,1,0,0,0,67,67,61,1,,,,,,,,,,,,,,,,,,,,,,,
,,,,,,,,,,,,,,,,,,,,,,,,,,,,,,,,,,,,,,,,,,,5ee9e9d06580b8000940f89f,5fe1a6f32fbe51c368aa13ec,2020-12-22_08h58.00.575,FlowerSimilarity_Experiment,2020.1.2,Win32,60,5fe17d4a51f3a9c1a60f9869,,,,,,,,,,,,,,,,,,,6,FF,,7,0.85127,,,,,,,,,,,,,,,,,,,,,,,,,,,,,,,,,,54,100,1,0,0,response1disk,3,69,25,1,1,0,0,rectangle,25,1,1,0,0,7,7,"[3,220,225,91,201,33,145,146,141,168,201,73,269,79,123,44,28,245,187,150]",25,1,1,0,0,0,68,68,21,1,,,,,,,,,,,,,,,,,,,,,,,
,,,,,,,,,,,,,,,,,,,,,,,,,,,,,,,,,,,,,,,,,,,5ee9e9d06580b8000940f89f,5fe1a6f32fbe51c368aa13ec,2020-12-22_08h58.00.575,FlowerSimilarity_Experiment,2020.1.2,Win32,60,5fe17d4a51f3a9c1a60f9869,,,,,,,,,,,,,,,,,,,3,PF,,3,1.724865,,,,,,,,,,,,,,,,,,,,,,,,,,,,,,,,,,-54,-115,1,0,0,response5disk,4,70,-2,-5,1,0,0,rectangle,-2,-5,1,0,0,7,0,"[3,220,225,91,201,33,145,146,141,168,201,73,269,79,123,44,28,245,187,150]",-2,-5,1,0,0,0,69,69,30,1,,,,,,,,,,,,,,,,,,,,,,,
,,,,,,,,,,,,,,,,,,,,,,,,,,,,,,,,,,,,,,,,,,,5ee9e9d06580b8000940f89f,5fe1a6f32fbe51c368aa13ec,2020-12-22_08h58.00.575,FlowerSimilarity_Experiment,2020.1.2,Win32,60,5fe17d4a51f3a9c1a60f9869,,,,,,,,,,,,,,,,,,,8,PF,,7,0.754185,,,,,,,,,,,,,,,,,,,,,,,,,,,,,,,,,,50,95,1,0,0,response1disk,1,71,21,7,1,0,0,rectangle,21,7,1,0,0,7,1,"[3,220,225,91,201,33,145,146,141,168,201,73,269,79,123,44,28,245,187,150]",21,7,1,0,0,0,70,70,57,1,,,,,,,,,,,,,,,,,,,,,,,
,,,,,,,,,,,,,,,,,,,,,,,,,,,,,,,,,,,,,,,,,,,5ee9e9d06580b8000940f89f,5fe1a6f32fbe51c368aa13ec,2020-12-22_08h58.00.575,FlowerSimilarity_Experiment,2020.1.2,Win32,60,5fe17d4a51f3a9c1a60f9869,,,,,,,,,,,,,,,,,,,6,PF,,4,1.05322,,,,,,,,,,,,,,,,,,,,,,,,,,,,,,,,,,44,-98,1,0,0,response3disk,7,72,8,-2,1,0,0,rectangle,8,-2,1,0,0,7,4,"[3,220,225,91,201,33,145,146,141,168,201,73,269,79,123,44,28,245,187,150]",8,-2,1,0,0,0,71,71,50,1,,,,,,,,,,,,,,,,,,,,,,,
,,,,,,,,,,,,,,,,,,,,,,,,,,,,,,,,,,,,,,,,,,,5ee9e9d06580b8000940f89f,5fe1a6f32fbe51c368aa13ec,2020-12-22_08h58.00.575,FlowerSimilarity_Experiment,2020.1.2,Win32,60,5fe17d4a51f3a9c1a60f9869,,,,,,,,,,,,,,,,,,,7,PF,,4,1.740195,,,,,,,,,,,,,,,,,,,,,,,,,,,,,,,,,,48,-132,1,0,0,response3disk,1,73,4,-15,1,0,0,rectangle,105,-63,1,0,0,5,6,"[3,220,225,91,201,33,145,146,141,168,201,73,269,79,123,44,28,245,187,150]",-29,12,1,0,0,0,72,72,53,1,response3disk_3,rectangle,,,,,,,,,,,,,,,,,,,,,
,,,,,,,,,,,,,,,,,,,,,,,,,,,,,,,,,,,,,,,,,,,5ee9e9d06580b8000940f89f,5fe1a6f32fbe51c368aa13ec,2020-12-22_08h58.00.575,FlowerSimilarity_Experiment,2020.1.2,Win32,60,5fe17d4a51f3a9c1a60f9869,,,,,,,,,,,,,,,,,,,7,PF,,5,0.869745,,,,,,,,,,,,,,,,,,,,,,,,,,,,,,,,,,111,-55,1,0,0,response3disk,9,74,3,2,1,0,0,rectangle,3,2,1,0,0,5,7,"[3,220,225,91,201,33,145,146,141,168,201,73,269,79,123,44,28,245,187,150]",3,2,1,0,0,0,73,73,10,1,,,,,,,,,,,,,,,,,,,,,,,
,,,,,,,,,,,,,,,,,,,,,,,,,,,,,,,,,,,,,,,,,,,5ee9e9d06580b8000940f89f,5fe1a6f32fbe51c368aa13ec,2020-12-22_08h58.00.575,FlowerSimilarity_Experiment,2020.1.2,Win32,60,5fe17d4a51f3a9c1a60f9869,,,,,,,,,,,,,,,,,,,6,PF,,6,0.80353,,,,,,,,,,,,,,,,,,,,,,,,,,,,,,,,,,105,61,1,0,0,response1disk,2,75,-12,-7,1,0,0,rectangle,-12,-7,1,0,0,5,6,"[3,220,225,91,201,33,145,146,141,168,201,73,269,79,123,44,28,245,187,150]",-12,-7,1,0,0,0,74,74,130,1,,,,,,,,,,,,,,,,,,,,,,,
,,,,,,,,,,,,,,,,,,,,,,,,,,,,,,,,,,,,,,,,,,,5ee9e9d06580b8000940f89f,5fe1a6f32fbe51c368aa13ec,2020-12-22_08h58.00.575,FlowerSimilarity_Experiment,2020.1.2,Win32,60,5fe17d4a51f3a9c1a60f9869,,,,,,,,,,,,,,,,,,,9,FF,,6,0.78457,,,,,,,,,,,,,,,,,,,,,,,,,,,,,,,,,,108,45,1,0,0,response1disk,2,76,4,1,1,0,0,rectangle,4,1,1,0,0,5,0,"[3,220,225,91,201,33,145,146,141,168,201,73,269,79,123,44,28,245,187,150]",4,1,1,0,0,0,75,75,11,1,,,,,,,,,,,,,,,,,,,,,,,
,,,,,,,,,,,,,,,,,,,,,,,,,,,,,,,,,,,,,,,,,,,5ee9e9d06580b8000940f89f,5fe1a6f32fbe51c368aa13ec,2020-12-22_08h58.00.575,FlowerSimilarity_Experiment,2020.1.2,Win32,60,5fe17d4a51f3a9c1a60f9869,,,,,,,,,,,,,,,,,,,1,FF,,6,0.56956,,,,,,,,,,,,,,,,,,,,,,,,,,,,,,,,,,78,43,1,0,0,response1disk,1,77,-7,-6,1,0,0,rectangle,-7,-6,1,0,0,5,4,"[3,220,225,91,201,33,145,146,141,168,201,73,269,79,123,44,28,245,187,150]",-7,-6,1,0,0,0,76,76,151,1,,,,,,,,,,,,,,,,,,,,,,,
,,,,,,,,,,,,,,,,,,,,,,,,,,,,,,,,,,,,,,,,,,,5ee9e9d06580b8000940f89f,5fe1a6f32fbe51c368aa13ec,2020-12-22_08h58.00.575,FlowerSimilarity_Experiment,2020.1.2,Win32,60,5fe17d4a51f3a9c1a60f9869,,,,,,,,,,,,,,,,,,,6,PF,,5,0.336035,,,,,,,,,,,,,,,,,,,,,,,,,,,,,,,,,,55,-35,1,0,0,response3disk,9,78,-1,3,1,0,0,rectangle,-1,3,1,0,0,5,2,"[3,220,225,91,201,33,145,146,141,168,201,73,269,79,123,44,28,245,187,150]",-1,3,1,0,0,0,77,77,45,1,,,,,,,,,,,,,,,,,,,,,,,
,,,,,,,,,,,,,,,,,,,,,,,,,,,,,,,,,,,,,,,,,,,5ee9e9d06580b8000940f89f,5fe1a6f32fbe51c368aa13ec,2020-12-22_08h58.00.575,FlowerSimilarity_Experiment,2020.1.2,Win32,60,5fe17d4a51f3a9c1a60f9869,,,,,,,,,,,,,,,,,,,6,FF,,6,0.84248,,,,,,,,,,,,,,,,,,,,,,,,,,,,,,,,,,133,56,1,0,0,response1disk,4,79,25,9,1,0,0,rectangle,-91,-48,1,0,0,5,2,"[3,220,225,91,201,33,145,146,141,168,201,73,269,79,123,44,28,245,187,150]",10,-4,1,0,0,0,78,78,56,1,response5disk_3,rectangle,,,,,,,,,,,,,,,,,,,,,
,,,,,,,,,,,,,,,,,,,,,,,,,,,,,,,,,,,,,,,,,,,5ee9e9d06580b8000940f89f,5fe1a6f32fbe51c368aa13ec,2020-12-22_08h58.00.575,FlowerSimilarity_Experiment,2020.1.2,Win32,60,5fe17d4a51f3a9c1a60f9869,,,,,,,,,,,,,,,,,,,6,PF,,3,7.22295,,,,,,,,,,,,,,,,,,,,,,,,,,,,,,,,,,-36,-101,1,0,0,response5disk,1,80,2,-12,1,0,0,rectangle,2,-12,1,0,0,5,0,"[3,220,225,91,201,33,145,146,141,168,201,73,269,79,123,44,28,245,187,150]",2,-12,1,0,0,0,79,79,46,1,,,,,,,,,,,,,,,,,,,,,,,
,,,,,,,,,,,,,,,,,,,,,,,,,,,,,,,,,,,,,,,,,,,5ee9e9d06580b8000940f89f,5fe1a6f32fbe51c368aa13ec,2020-12-22_08h58.00.575,FlowerSimilarity_Experiment,2020.1.2,Win32,60,5fe17d4a51f3a9c1a60f9869,,,,,,,,,,,,,,,,,,,1,PF,,6,1.718315,,,,,,,,,,,,,,,,,,,,,,,,,,,,,,,,,,98,67,1,0,0,response1disk,5,81,15,-8,1,0,0,rectangle,15,-8,1,0,0,5,0,"[3,220,225,91,201,33,145,146,141,168,201,73,269,79,123,44,28,245,187,150]",15,-8,1,0,0,0,80,80,28,1,,,,,,,,,,,,,,,,,,,,,,,
,,,,,,,,,,,,,,,,,,,,,,,,,,,,,,,,,,,,,,,,,,,5ee9e9d06580b8000940f89f,5fe1a6f32fbe51c368aa13ec,2020-12-22_08h58.00.575,FlowerSimilarity_Experiment,2020.1.2,Win32,60,5fe17d4a51f3a9c1a60f9869,,,,,,,,,,,,,,,,,,,5,FF,,5,0.417375,,,,,,,,,,,,,,,,,,,,,,,,,,,,,,,,,,101,-99,1,0,0,response3disk,2,82,5,16,1,0,0,rectangle,5,16,1,0,0,5,1,"[3,220,225,91,201,33,145,146,141,168,201,73,269,79,123,44,28,245,187,150]",5,16,1,0,0,0,81,81,55,1,,,,,,,,,,,,,,,,,,,,,,,
,,,,,,,,,,,,,,,,,,,,,,,,,,,,,,,,,,,,,,,,,,,5ee9e9d06580b8000940f89f,5fe1a6f32fbe51c368aa13ec,2020-12-22_08h58.00.575,FlowerSimilarity_Experiment,2020.1.2,Win32,60,5fe17d4a51f3a9c1a60f9869,,,,,,,,,,,,,,,,,,,7,PF,,5,0.60058,,,,,,,,,,,,,,,,,,,,,,,,,,,,,,,,,,102,-87,1,0,0,response3disk,6,83,3,0,1,0,0,rectangle,3,0,1,0,0,5,2,"[3,220,225,91,201,33,145,146,141,168,201,73,269,79,123,44,28,245,187,150]",3,0,1,0,0,0,82,82,29,1,,,,,,,,,,,,,,,,,,,,,,,
,,,,,,,,,,,,,,,,,,,,,,,,,,,,,,,,,,,,,,,,,,,5ee9e9d06580b8000940f89f,5fe1a6f32fbe51c368aa13ec,2020-12-22_08h58.00.575,FlowerSimilarity_Experiment,2020.1.2,Win32,60,5fe17d4a51f3a9c1a60f9869,,,,,,,,,,,,,,,,,,,7,PF,,5,0.550545,,,,,,,,,,,,,,,,,,,,,,,,,,,,,,,,,,52,-42,1,0,0,response3disk,5,84,14,4,1,0,0,rectangle,14,4,1,0,0,5,3,"[3,220,225,91,201,33,145,146,141,168,201,73,269,79,123,44,28,245,187,150]",14,4,1,0,0,0,83,83,92,1,,,,,,,,,,,,,,,,,,,,,,,
,,,,,,,,,,,,,,,,,,,,,,,,,,,,,,,,,,,,,,,,,,,5ee9e9d06580b8000940f89f,5fe1a6f32fbe51c368aa13ec,2020-12-22_08h58.00.575,FlowerSimilarity_Experiment,2020.1.2,Win32,60,5fe17d4a51f3a9c1a60f9869,,,,,,,,,,,,,,,,,,,8,PF,,6,0.282015,,,,,,,,,,,,,,,,,,,,,,,,,,,,,,,,,,106,46,1,0,0,response1disk,3,85,36,-2,1,0,0,rectangle,36,-2,1,0,0,5,7,"[3,220,225,91,201,33,145,146,141,168,201,73,269,79,123,44,28,245,187,150]",36,-2,1,0,0,0,84,84,71,1,,,,,,,,,,,,,,,,,,,,,,,
,,,,,,,,,,,,,,,,,,,,,,,,,,,,,,,,,,,,,,,,,,,5ee9e9d06580b8000940f89f,5fe1a6f32fbe51c368aa13ec,2020-12-22_08h58.00.575,FlowerSimilarity_Experiment,2020.1.2,Win32,60,5fe17d4a51f3a9c1a60f9869,,,,,,,,,,,,,,,,,,,9,PF,,4,0.432955,,,,,,,,,,,,,,,,,,,,,,,,,,,,,,,,,,63,-75,1,0,0,response3disk,2,86,27,-3,1,0,0,rectangle,27,-3,1,0,0,5,4,"[3,220,225,91,201,33,145,146,141,168,201,73,269,79,123,44,28,245,187,150]",27,-3,1,0,0,0,85,85,157,1,,,,,,,,,,,,,,,,,,,,,,,
,,,,,,,,,,,,,,,,,,,,,,,,,,,,,,,,,,,,,,,,,,,5ee9e9d06580b8000940f89f,5fe1a6f32fbe51c368aa13ec,2020-12-22_08h58.00.575,FlowerSimilarity_Experiment,2020.1.2,Win32,60,5fe17d4a51f3a9c1a60f9869,,,,,,,,,,,,,,,,,,,4,FF,,4,1.43485,,,,,,,,,,,,,,,,,,,,,,,,,,,,,,,,,,110,-138,1,0,0,response3disk,1,87,28,-15,1,0,0,rectangle,28,-15,1,0,0,5,4,"[3,220,225,91,201,33,145,146,141,168,201,73,269,79,123,44,28,245,187,150]",28,-15,1,0,0,0,86,86,102,1,,,,,,,,,,,,,,,,,,,,,,,
,,,,,,,,,,,,,,,,,,,,,,,,,,,,,,,,,,,,,,,,,,,5ee9e9d06580b8000940f89f,5fe1a6f32fbe51c368aa13ec,2020-12-22_08h58.00.575,FlowerSimilarity_Experiment,2020.1.2,Win32,60,5fe17d4a51f3a9c1a60f9869,,,,,,,,,,,,,,,,,,,3,FF,,4,0.917115,,,,,,,,,,,,,,,,,,,,,,,,,,,,,,,,,,57,-113,1,0,0,response3disk,4,88,13,-1,1,0,0,rectangle,13,-1,1,0,0,5,1,"[3,220,225,91,201,33,145,146,141,168,201,73,269,79,123,44,28,245,187,150]",13,-1,1,0,0,0,87,87,110,1,,,,,,,,,,,,,,,,,,,,,,,
,,,,,,,,,,,,,,,,,,,,,,,,,,,,,,,,,,,,,,,,,,,5ee9e9d06580b8000940f89f,5fe1a6f32fbe51c368aa13ec,2020-12-22_08h58.00.575,FlowerSimilarity_Experiment,2020.1.2,Win32,60,5fe17d4a51f3a9c1a60f9869,,,,,,,,,,,,,,,,,,,6,PF,,6,1.48471,,,,,,,,,,,,,,,,,,,,,,,,,,,,,,,,,,124,45,1,0,0,response1disk,4,89,-9,0,1,0,0,rectangle,-9,0,1,0,0,5,3,"[3,220,225,91,201,33,145,146,141,168,201,73,269,79,123,44,28,245,187,150]",-9,0,1,0,0,0,88,88,33,1,,,,,,,,,,,,,,,,,,,,,,,
,,,,,,,,,,,,,,,,,,,,,,,,,,,,,,,,,,,,,,,,,,,5ee9e9d06580b8000940f89f,5fe1a6f32fbe51c368aa13ec,2020-12-22_08h58.00.575,FlowerSimilarity_Experiment,2020.1.2,Win32,60,5fe17d4a51f3a9c1a60f9869,,,,,,,,,,,,,,,,,,,9,PF,,7,0.91787,,,,,,,,,,,,,,,,,,,,,,,,,,,,,,,,,,82,110,1,0,0,response1disk,7,90,34,5,1,0,0,rectangle,34,5,1,0,0,5,4,"[3,220,225,91,201,33,145,146,141,168,201,73,269,79,123,44,28,245,187,150]",34,5,1,0,0,0,89,89,121,1,,,,,,,,,,,,,,,,,,,,,,,
,,,,,,,,,,,,,,,,,,,,,,,,,,,,,,,,,,,,,,,,,,,5ee9e9d06580b8000940f89f,5fe1a6f32fbe51c368aa13ec,2020-12-22_08h58.00.575,FlowerSimilarity_Experiment,2020.1.2,Win32,60,5fe17d4a51f3a9c1a60f9869,,,,,,,,,,,,,,,,,,,2,PF,,7,0.751265,,,,,,,,,,,,,,,,,,,,,,,,,,,,,,,,,,61,95,1,0,0,response1disk,8,91,8,-14,1,0,0,rectangle,45,-110,1,0,0,4,4,"[3,220,225,91,201,33,145,146,141,168,201,73,269,79,123,44,28,245,187,150]",4,-19,1,0,0,0,90,90,52,1,response3disk_3,rectangle,,,,,,,,,,,,,,,,,,,,,
,,,,,,,,,,,,,,,,,,,,,,,,,,,,,,,,,,,,,,,,,,,5ee9e9d06580b8000940f89f,5fe1a6f32fbe51c368aa13ec,2020-12-22_08h58.00.575,FlowerSimilarity_Experiment,2020.1.2,Win32,60,5fe17d4a51f3a9c1a60f9869,,,,,,,,,,,,,,,,,,,1,FF,,5,1.58482,,,,,,,,,,,,,,,,,,,,,,,,,,,,,,,,,,77,-69,1,0,0,response3disk,8,92,28,-3,1,0,0,rectangle,28,-3,1,0,0,4,7,"[3,220,225,91,201,33,145,146,141,168,201,73,269,79,123,44,28,245,187,150]",28,-3,1,0,0,0,91,91,27,1,,,,,,,,,,,,,,,,,,,,,,,
,,,,,,,,,,,,,,,,,,,,,,,,,,,,,,,,,,,,,,,,,,,5ee9e9d06580b8000940f89f,5fe1a6f32fbe51c368aa13ec,2020-12-22_08h58.00.575,FlowerSimilarity_Experiment,2020.1.2,Win32,60,5fe17d4a51f3a9c1a60f9869,,,,,,,,,,,,,,,,,,,9,PF,,4,0.067545,,,,,,,,,,,,,,,,,,,,,,,,,,,,,,,,,,86,-110,1,0,0,response3disk,4,93,24,-14,1,0,0,rectangle,24,-14,1,0,0,4,3,"[3,220,225,91,201,33,145,146,141,168,201,73,269,79,123,44,28,245,187,150]",24,-14,1,0,0,0,92,92,114,1,,,,,,,,,,,,,,,,,,,,,,,
,,,,,,,,,,,,,,,,,,,,,,,,,,,,,,,,,,,,,,,,,,,5ee9e9d06580b8000940f89f,5fe1a6f32fbe51c368aa13ec,2020-12-22_08h58.00.575,FlowerSimilarity_Experiment,2020.1.2,Win32,60,5fe17d4a51f3a9c1a60f9869,,,,,,,,,,,,,,,,,,,2,FF,,4,0.03399,,,,,,,,,,,,,,,,,,,,,,,,,,,,,,,,,,63,-83,1,0,0,response3disk,4,94,13,-4,1,0,0,rectangle,13,-4,1,0,0,4,0,"[3,220,225,91,201,33,145,146,141,168,201,73,269,79,123,44,28,245,187,150]",13,-4,1,0,0,0,93,93,145,1,,,,,,,,,,,,,,,,,,,,,,,
,,,,,,,,,,,,,,,,,,,,,,,,,,,,,,,,,,,,,,,,,,,5ee9e9d06580b8000940f89f,5fe1a6f32fbe51c368aa13ec,2020-12-22_08h58.00.575,FlowerSimilarity_Experiment,2020.1.2,Win32,60,5fe17d4a51f3a9c1a60f9869,,,,,,,,,,,,,,,,,,,1,PF,,3,0.700815,,,,,,,,,,,,,,,,,,,,,,,,,,,,,,,,,,-51,-104,1,0,0,response5disk,8,95,3,-7,1,0,0,rectangle,3,-7,1,0,0,4,0,"[3,220,225,91,201,33,145,146,141,168,201,73,269,79,123,44,28,245,187,150]",3,-7,1,0,0,0,94,94,65,1,,,,,,,,,,,,,,,,,,,,,,,
,,,,,,,,,,,,,,,,,,,,,,,,,,,,,,,,,,,,,,,,,,,5ee9e9d06580b8000940f89f,5fe1a6f32fbe51c368aa13ec,2020-12-22_08h58.00.575,FlowerSimilarity_Experiment,2020.1.2,Win32,60,5fe17d4a51f3a9c1a60f9869,,,,,,,,,,,,,,,,,,,9,PF,,7,1.334865,,,,,,,,,,,,,,,,,,,,,,,,,,,,,,,,,,68,77,1,0,0,response1disk,8,96,33,-7,1,0,0,rectangle,33,-7,1,0,0,4,2,"[3,220,225,91,201,33,145,146,141,168,201,73,269,79,123,44,28,245,187,150]",33,-7,1,0,0,0,95,95,67,1,,,,,,,,,,,,,,,,,,,,,,,
,,,,,,,,,,,,,,,,,,,,,,,,,,,,,,,,,,,,,,,,,,,5ee9e9d06580b8000940f89f,5fe1a6f32fbe51c368aa13ec,2020-12-22_08h58.00.575,FlowerSimilarity_Experiment,2020.1.2,Win32,60,5fe17d4a51f3a9c1a60f9869,,,,,,,,,,,,,,,,,,,1,PF,,0,1.238655,,,,,,,,,,,,,,,,,,,,,,,,,,,,,,,,,,-59,99,1,0,0,response7disk,1,97,-9,-14,1,0,0,rectangle,-9,-14,1,0,0,4,2,"[3,220,225,91,201,33,145,146,141,168,201,73,269,79,123,44,28,245,187,150]",-9,-14,1,0,0,0,96,96,76,1,,,,,,,,,,,,,,,,,,,,,,,
,,,,,,,,,,,,,,,,,,,,,,,,,,,,,,,,,,,,,,,,,,,5ee9e9d06580b8000940f89f,5fe1a6f32fbe51c368aa13ec,2020-12-22_08h58.00.575,FlowerSimilarity_Experiment,2020.1.2,Win32,60,5fe17d4a51f3a9c1a60f9869,,,,,,,,,,,,,,,,,,,1,FF,,3,1.774055,,,,,,,,,,,,,,,,,,,,,,,,,,,,,,,,,,-42,-69,1,0,0,response5disk,9,98,-10,-5,1,0,0,rectangle,-10,-5,1,0,0,4,4,"[3,220,225,91,201,33,145,146,141,168,201,73,269,79,123,44,28,245,187,150]",-10,-5,1,0,0,0,97,97,123,1,,,,,,,,,,,,,,,,,,,,,,,
,,,,,,,,,,,,,,,,,,,,,,,,,,,,,,,,,,,,,,,,,,,5ee9e9d06580b8000940f89f,5fe1a6f32fbe51c368aa13ec,2020-12-22_08h58.00.575,FlowerSimilarity_Experiment,2020.1.2,Win32,60,5fe17d4a51f3a9c1a60f9869,,,,,,,,,,,,,,,,,,,2,PF,,3,1.340995,,,,,,,,,,,,,,,,,,,,,,,,,,,,,,,,,,-37,-79,1,0,0,response5disk,5,99,-15,-10,1,0,0,rectangle,-15,-10,1,0,0,4,3,"[3,220,225,91,201,33,145,146,141,168,201,73,269,79,123,44,28,245,187,150]",-15,-10,1,0,0,0,98,98,147,1,,,,,,,,,,,,,,,,,,,,,,,
,,,,,,,,,,,,,,,,,,,,,,,,,,,,,,,,,,,,,,,,,,,5ee9e9d06580b8000940f89f,5fe1a6f32fbe51c368aa13ec,2020-12-22_08h58.00.575,FlowerSimilarity_Experiment,2020.1.2,Win32,60,5fe17d4a51f3a9c1a60f9869,,,,,,,,,,,,,,,,,,,1,FF,,5,1.85613,,,,,,,,,,,,,,,,,,,,,,,,,,,,,,,,,,82,-27,1,0,0,response3disk,7,100,24,-10,1,0,0,rectangle,24,-10,1,0,0,4,6,"[3,220,225,91,201,33,145,146,141,168,201,73,269,79,123,44,28,245,187,150]",24,-10,1,0,0,0,99,99,137,1,,,,,,,,,,,,,,,,,,,,,,,
,,,,,,,,,,,,,,,,,,,,,,,,,,,,,,,,,,,,,,,,,,,5ee9e9d06580b8000940f89f,5fe1a6f32fbe51c368aa13ec,2020-12-22_08h58.00.575,FlowerSimilarity_Experiment,2020.1.2,Win32,60,5fe17d4a51f3a9c1a60f9869,,,,,,,,,,,,,,,,,,,8,FF,,3,0.403685,,,,,,,,,,,,,,,,,,,,,,,,,,,,,,,,,,-25,-121,1,0,0,response5disk,3,101,28,0,1,0,0,rectangle,28,0,1,0,0,4,2,"[3,220,225,91,201,33,145,146,141,168,201,73,269,79,123,44,28,245,187,150]",28,0,1,0,0,0,100,100,154,1,,,,,,,,,,,,,,,,,,,,,,,
,,,,,,,,,,,,,,,,,,,,,,,,,,,,,,,,,,,,,,,,,,,5ee9e9d06580b8000940f89f,5fe1a6f32fbe51c368aa13ec,2020-12-22_08h58.00.575,FlowerSimilarity_Experiment,2020.1.2,Win32,60,5fe17d4a51f3a9c1a60f9869,,,,,,,,,,,,,,,,,,,7,FF,,6,0.4194,,,,,,,,,,,,,,,,,,,,,,,,,,,,,,,,,,58,28,1,0,0,response1disk,1,102,25,-3,1,0,0,rectangle,25,-3,1,0,0,4,0,"[3,220,225,91,201,33,145,146,141,168,201,73,269,79,123,44,28,245,187,150]",25,-3,1,0,0,0,101,101,132,1,,,,,,,,,,,,,,,,,,,,,,,
,,,,,,,,,,,,,,,,,,,,,,,,,,,,,,,,,,,,,,,,,,,5ee9e9d06580b8000940f89f,5fe1a6f32fbe51c368aa13ec,2020-12-22_08h58.00.575,FlowerSimilarity_Experiment,2020.1.2,Win32,60,5fe17d4a51f3a9c1a60f9869,,,,,,,,,,,,,,,,,,,4,PF,,7,0.52125,,,,,,,,,,,,,,,,,,,,,,,,,,,,,,,,,,45,95,1,0,0,response1disk,2,103,28,-5,1,0,0,rectangle,28,-5,1,0,0,4,7,"[3,220,225,91,201,33,145,146,141,168,201,73,269,79,123,44,28,245,187,150]",28,-5,1,0,0,0,102,102,108,1,,,,,,,,,,,,,,,,,,,,,,,
,,,,,,,,,,,,,,,,,,,,,,,,,,,,,,,,,,,,,,,,,,,5ee9e9d06580b8000940f89f,5fe1a6f32fbe51c368aa13ec,2020-12-22_08h58.00.575,FlowerSimilarity_Experiment,2020.1.2,Win32,60,5fe17d4a51f3a9c1a60f9869,,,,,,,,,,,,,,,,,,,7,FF,,6,0.37126,,,,,,,,,,,,,,,,,,,,,,,,,,,,,,,,,,91,64,1,0,0,response1disk,7,104,-8,20,1,0,0,rectangle,-8,20,1,0,0,4,3,"[3,220,225,91,201,33,145,146,141,168,201,73,269,79,123,44,28,245,187,150]",-8,20,1,0,0,0,103,103,34,1,,,,,,,,,,,,,,,,,,,,,,,
,,,,,,,,,,,,,,,,,,,,,,,,,,,,,,,,,,,,,,,,,,,5ee9e9d06580b8000940f89f,5fe1a6f32fbe51c368aa13ec,2020-12-22_08h58.00.575,FlowerSimilarity_Experiment,2020.1.2,Win32,60,5fe17d4a51f3a9c1a60f9869,,,,,,,,,,,,,,,,,,,9,PF,,4,2.071825,,,,,,,,,,,,,,,,,,,,,,,,,,,,,,,,,,48,-130,1,0,0,response3disk,5,105,-6,-19,1,0,0,rectangle,-6,-19,1,0,0,4,0,"[3,220,225,91,201,33,145,146,141,168,201,73,269,79,123,44,28,245,187,150]",-6,-19,1,0,0,0,104,104,134,1,,,,,,,,,,,,,,,,,,,,,,,
,,,,,,,,,,,,,,,,,,,,,,,,,,,,,,,,,,,,,,,,,,,5ee9e9d06580b8000940f89f,5fe1a6f32fbe51c368aa13ec,2020-12-22_08h58.00.575,FlowerSimilarity_Experiment,2020.1.2,Win32,60,5fe17d4a51f3a9c1a60f9869,,,,,,,,,,,,,,,,,,,6,FF,,3,0.954265,,,,,,,,,,,,,,,,,,,,,,,,,,,,,,,,,,-39,-93,1,0,0,response5disk,8,106,-18,-4,1,0,0,rectangle,-18,-4,1,0,0,4,6,"[3,220,225,91,201,33,145,146,141,168,201,73,269,79,123,44,28,245,187,150]",-18,-4,1,0,0,0,105,105,133,1,,,,,,,,,,,,,,,,,,,,,,,
,,,,,,,,,,,,,,,,,,,,,,,,,,,,,,,,,,,,,,,,,,,5ee9e9d06580b8000940f89f,5fe1a6f32fbe51c368aa13ec,2020-12-22_08h58.00.575,FlowerSimilarity_Experiment,2020.1.2,Win32,60,5fe17d4a51f3a9c1a60f9869,,,,,,,,,,,,,,,,,,,4,PF,,3,0.78675,,,,,,,,,,,,,,,,,,,,,,,,,,,,,,,,,,-23,-73,1,0,0,response5disk,3,107,12,-3,1,0,0,rectangle,12,-3,1,0,0,4,5,"[3,220,225,91,201,33,145,146,141,168,201,73,269,79,123,44,28,245,187,150]",12,-3,1,0,0,0,106,106,89,1,,,,,,,,,,,,,,,,,,,,,,,
,,,,,,,,,,,,,,,,,,,,,,,,,,,,,,,,,,,,,,,,,,,5ee9e9d06580b8000940f89f,5fe1a6f32fbe51c368aa13ec,2020-12-22_08h58.00.575,FlowerSimilarity_Experiment,2020.1.2,Win32,60,5fe17d4a51f3a9c1a60f9869,,,,,,,,,,,,,,,,,,,2,FF,,3,0.703515,,,,,,,,,,,,,,,,,,,,,,,,,,,,,,,,,,-47,-94,1,0,0,response5disk,9,108,-7,-11,1,0,0,rectangle,-7,-11,1,0,0,4,5,"[3,220,225,91,201,33,145,146,141,168,201,73,269,79,123,44,28,245,187,150]",-7,-11,1,0,0,0,107,107,72,1,,,,,,,,,,,,,,,,,,,,,,,
,,,,,,,,,,,,,,,,,,,,,,,,,,,,,,,,,,,,,,,,,,,5ee9e9d06580b8000940f89f,5fe1a6f32fbe51c368aa13ec,2020-12-22_08h58.00.575,FlowerSimilarity_Experiment,2020.1.2,Win32,60,5fe17d4a51f3a9c1a60f9869,,,,,,,,,,,,,,,,,,,7,FF,,4,0.83741,,,,,,,,,,,,,,,,,,,,,,,,,,,,,,,,,,61,-132,1,0,0,response3disk,6,109,21,-6,1,0,0,rectangle,21,-6,1,0,0,4,0,"[3,220,225,91,201,33,145,146,141,168,201,73,269,79,123,44,28,245,187,150]",21,-6,1,0,0,0,108,108,31,1,,,,,,,,,,,,,,,,,,,,,,,
,,,,,,,,,,,,,,,,,,,,,,,,,,,,,,,,,,,,,,,,,,,5ee9e9d06580b8000940f89f,5fe1a6f32fbe51c368aa13ec,2020-12-22_08h58.00.575,FlowerSimilarity_Experiment,2020.1.2,Win32,60,5fe17d4a51f3a9c1a60f9869,,,,,,,,,,,,,,,,,,,4,PF,,4,0.500175,,,,,,,,,,,,,,,,,,,,,,,,,,,,,,,,,,45,-82,1,0,0,response3disk,5,110,28,6,1,0,0,rectangle,28,6,1,0,0,4,7,"[3,220,225,91,201,33,145,146,141,168,201,73,269,79,123,44,28,245,187,150]",28,6,1,0,0,0,109,109,49,1,,,,,,,,,,,,,,,,,,,,,,,
,,,,,,,,,,,,,,,,,,,,,,,,,,,,,,,,,,,,,,,,,,,5ee9e9d06580b8000940f89f,5fe1a6f32fbe51c368aa13ec,2020-12-22_08h58.00.575,FlowerSimilarity_Experiment,2020.1.2,Win32,60,5fe17d4a51f3a9c1a60f9869,,,,,,,,,,,,,,,,,,,5,PF,,6,1.868265,,,,,,,,,,,,,,,,,,,,,,,,,,,,,,,,,,101,54,1,0,0,response1disk,4,111,19,-4,1,0,0,rectangle,19,-4,1,0,0,4,1,"[3,220,225,91,201,33,145,146,141,168,201,73,269,79,123,44,28,245,187,150]",19,-4,1,0,0,0,110,110,54,1,,,,,,,,,,,,,,,,,,,,,,,
,,,,,,,,,,,,,,,,,,,,,,,,,,,,,,,,,,,,,,,,,,,5ee9e9d06580b8000940f89f,5fe1a6f32fbe51c368aa13ec,2020-12-22_08h58.00.575,FlowerSimilarity_Experiment,2020.1.2,Win32,60,5fe17d4a51f3a9c1a60f9869,,,,,,,,,,,,,,,,,,,2,PF,,5,1.534945,,,,,,,,,,,,,,,,,,,,,,,,,,,,,,,,,,91,-67,1,0,0,response3disk,7,112,-7,-13,1,0,0,rectangle,-7,-13,1,0,0,4,2,"[3,220,225,91,201,33,145,146,141,168,201,73,269,79,123,44,28,245,187,150]",-7,-13,1,0,0,0,111,111,107,1,,,,,,,,,,,,,,,,,,,,,,,
,,,,,,,,,,,,,,,,,,,,,,,,,,,,,,,,,,,,,,,,,,,5ee9e9d06580b8000940f89f,5fe1a6f32fbe51c368aa13ec,2020-12-22_08h58.00.575,FlowerSimilarity_Experiment,2020.1.2,Win32,60,5fe17d4a51f3a9c1a60f9869,,,,,,,,,,,,,,,,,,,2,PF,,0,2.00219,,,,,,,,,,,,,,,,,,,,,,,,,,,,,,,,,,-61,110,1,0,0,response7disk,2,113,-24,2,1,0,0,rectangle,-24,2,1,0,0,4,2,"[3,220,225,91,201,33,145,146,141,168,201,73,269,79,123,44,28,245,187,150]",-24,2,1,0,0,0,112,112,14,1,,,,,,,,,,,,,,,,,,,,,,,
,,,,,,,,,,,,,,,,,,,,,,,,,,,,,,,,,,,,,,,,,,,5ee9e9d06580b8000940f89f,5fe1a6f32fbe51c368aa13ec,2020-12-22_08h58.00.575,FlowerSimilarity_Experiment,2020.1.2,Win32,60,5fe17d4a51f3a9c1a60f9869,,,,,,,,,,,,,,,,,,,2,PF,,4,1.16829,,,,,,,,,,,,,,,,,,,,,,,,,,,,,,,,,,86,-130,1,0,0,response3disk,3,114,25,-13,1,0,0,rectangle,25,-13,1,0,0,4,2,"[3,220,225,91,201,33,145,146,141,168,201,73,269,79,123,44,28,245,187,150]",25,-13,1,0,0,0,113,113,69,1,,,,,,,,,,,,,,,,,,,,,,,
,,,,,,,,,,,,,,,,,,,,,,,,,,,,,,,,,,,,,,,,,,,5ee9e9d06580b8000940f89f,5fe1a6f32fbe51c368aa13ec,2020-12-22_08h58.00.575,FlowerSimilarity_Experiment,2020.1.2,Win32,60,5fe17d4a51f3a9c1a60f9869,,,,,,,,,,,,,,,,,,,8,PF,,4,0.73428,,,,,,,,,,,,,,,,,,,,,,,,,,,,,,,,,,55,-95,1,0,0,response3disk,4,115,18,9,1,0,0,rectangle,18,9,1,0,0,4,6,"[3,220,225,91,201,33,145,146,141,168,201,73,269,79,123,44,28,245,187,150]",18,9,1,0,0,0,114,114,78,1,,,,,,,,,,,,,,,,,,,,,,,
,,,,,,,,,,,,,,,,,,,,,,,,,,,,,,,,,,,,,,,,,,,5ee9e9d06580b8000940f89f,5fe1a6f32fbe51c368aa13ec,2020-12-22_08h58.00.575,FlowerSimilarity_Experiment,2020.1.2,Win32,60,5fe17d4a51f3a9c1a60f9869,,,,,,,,,,,,,,,,,,,1,FF,,7,1.1676,,,,,,,,,,,,,,,,,,,,,,,,,,,,,,,,,,68,119,1,0,0,response1disk,4,116,35,3,1,0,0,rectangle,35,3,1,0,0,4,5,"[3,220,225,91,201,33,145,146,141,168,201,73,269,79,123,44,28,245,187,150]",35,3,1,0,0,0,115,115,135,1,,,,,,,,,,,,,,,,,,,,,,,
,,,,,,,,,,,,,,,,,,,,,,,,,,,,,,,,,,,,,,,,,,,5ee9e9d06580b8000940f89f,5fe1a6f32fbe51c368aa13ec,2020-12-22_08h58.00.575,FlowerSimilarity_Experiment,2020.1.2,Win32,60,5fe17d4a51f3a9c1a60f9869,,,,,,,,,,,,,,,,,,,4,PF,,3,3.436225,,,,,,,,,,,,,,,,,,,,,,,,,,,,,,,,,,-30,-131,1,0,0,response5disk,7,117,-6,16,1,0,0,rectangle,-6,16,1,0,0,4,2,"[3,220,225,91,201,33,145,146,141,168,201,73,269,79,123,44,28,245,187,150]",-6,16,1,0,0,0,116,116,38,1,,,,,,,,,,,,,,,,,,,,,,,
,,,,,,,,,,,,,,,,,,,,,,,,,,,,,,,,,,,,,,,,,,,5ee9e9d06580b8000940f89f,5fe1a6f32fbe51c368aa13ec,2020-12-22_08h58.00.575,FlowerSimilarity_Experiment,2020.1.2,Win32,60,5fe17d4a51f3a9c1a60f9869,,,,,,,,,,,,,,,,,,,6,PF,,4,0.90133,,,,,,,,,,,,,,,,,,,,,,,,,,,,,,,,,,96,-97,1,0,0,response3disk,8,118,34,-12,1,0,0,rectangle,34,-12,1,0,0,4,2,"[3,220,225,91,201,33,145,146,141,168,201,73,269,79,123,44,28,245,187,150]",34,-12,1,0,0,0,117,117,64,1,,,,,,,,,,,,,,,,,,,,,,,
,,,,,,,,,,,,,,,,,,,,,,,,,,,,,,,,,,,,,,,,,,,5ee9e9d06580b8000940f89f,5fe1a6f32fbe51c368aa13ec,2020-12-22_08h58.00.575,FlowerSimilarity_Experiment,2020.1.2,Win32,60,5fe17d4a51f3a9c1a60f9869,,,,,,,,,,,,,,,,,,,4,FF,,4,0.300285,,,,,,,,,,,,,,,,,,,,,,,,,,,,,,,,,,54,-92,1,0,0,response3disk,7,119,14,3,1,0,0,rectangle,14,3,1,0,0,4,1,"[3,220,225,91,201,33,145,146,141,168,201,73,269,79,123,44,28,245,187,150]",14,3,1,0,0,0,118,118,87,1,,,,,,,,,,,,,,,,,,,,,,,
,,,,,,,,,,,,,,,,,,,,,,,,,,,,,,,,,,,,,,,,,,,5ee9e9d06580b8000940f89f,5fe1a6f32fbe51c368aa13ec,2020-12-22_08h58.00.575,FlowerSimilarity_Experiment,2020.1.2,Win32,60,5fe17d4a51f3a9c1a60f9869,,,,,,,,,,,,,,,,,,,4,FF,,4,1.152205,,,,,,,,,,,,,,,,,,,,,,,,,,,,,,,,,,89,-120,1,0,0,response3disk,8,120,10,10,1,0,0,rectangle,10,10,1,0,0,4,0,"[3,220,225,91,201,33,145,146,141,168,201,73,269,79,123,44,28,245,187,150]",10,10,1,0,0,0,119,119,35,1,,,,,,,,,,,,,,,,,,,,,,,
,,,,,,,,,,,,,,,,,,,,,,,,,,,,,,,,,,,,,,,,,,,5ee9e9d06580b8000940f89f,5fe1a6f32fbe51c368aa13ec,2020-12-22_08h58.00.575,FlowerSimilarity_Experiment,2020.1.2,Win32,60,5fe17d4a51f3a9c1a60f9869,,,,,,,,,,,,,,,,,,,9,FF,,4,1.15026,,,,,,,,,,,,,,,,,,,,,,,,,,,,,,,,,,63,-145,1,0,0,response3disk,1,121,-9,-8,1,0,0,rectangle,-9,-8,1,0,0,4,6,"[3,220,225,91,201,33,145,146,141,168,201,73,269,79,123,44,28,245,187,150]",-9,-8,1,0,0,0,120,120,111,1,,,,,,,,,,,,,,,,,,,,,,,
,,,,,,,,,,,,,,,,,,,,,,,,,,,,,,,,,,,,,,,,,,,5ee9e9d06580b8000940f89f,5fe1a6f32fbe51c368aa13ec,2020-12-22_08h58.00.575,FlowerSimilarity_Experiment,2020.1.2,Win32,60,5fe17d4a51f3a9c1a60f9869,,,,,,,,,,,,,,,,,,,7,FF,,4,0.617045,,,,,,,,,,,,,,,,,,,,,,,,,,,,,,,,,,43,-110,1,0,0,response3disk,4,122,5,-11,1,0,0,rectangle,5,-11,1,0,0,4,7,"[3,220,225,91,201,33,145,146,141,168,201,73,269,79,123,44,28,245,187,150]",5,-11,1,0,0,0,121,121,158,1,,,,,,,,,,,,,,,,,,,,,,,
,,,,,,,,,,,,,,,,,,,,,,,,,,,,,,,,,,,,,,,,,,,5ee9e9d06580b8000940f89f,5fe1a6f32fbe51c368aa13ec,2020-12-22_08h58.00.575,FlowerSimilarity_Experiment,2020.1.2,Win32,60,5fe17d4a51f3a9c1a60f9869,,,,,,,,,,,,,,,,,,,3,FF,,0,1.18866,,,,,,,,,,,,,,,,,,,,,,,,,,,,,,,,,,-46,84,1,0,0,response7disk,3,123,6,-11,1,0,0,rectangle,-39,100,1,0,0,0,0,"[3,220,225,91,201,33,145,146,141,168,201,73,269,79,123,44,28,245,187,150]",-14,-10,1,0,0,0,122,122,68,1,response7disk_3,rectangle,,,,,,,,,,,,,,,,,,,,,
,,,,,,,,,,,,,,,,,,,,,,,,,,,,,,,,,,,,,,,,,,,5ee9e9d06580b8000940f89f,5fe1a6f32fbe51c368aa13ec,2020-12-22_08h58.00.575,FlowerSimilarity_Experiment,2020.1.2,Win32,60,5fe17d4a51f3a9c1a60f9869,,,,,,,,,,,,,,,,,,,1,PF,,3,12.89428,,,,,,,,,,,,,,,,,,,,,,,,,,,,,,,,,,-41,-103,1,0,0,response5disk,4,124,18,0,1,0,0,rectangle,18,0,1,0,0,0,6,"[3,220,225,91,201,33,145,146,141,168,201,73,269,79,123,44,28,245,187,150]",18,0,1,0,0,0,123,123,139,1,,,,,,,,,,,,,,,,,,,,,,,
,,,,,,,,,,,,,,,,,,,,,,,,,,,,,,,,,,,,,,,,,,,5ee9e9d06580b8000940f89f,5fe1a6f32fbe51c368aa13ec,2020-12-22_08h58.00.575,FlowerSimilarity_Experiment,2020.1.2,Win32,60,5fe17d4a51f3a9c1a60f9869,,,,,,,,,,,,,,,,,,,9,PF,,4,0.32165,,,,,,,,,,,,,,,,,,,,,,,,,,,,,,,,,,55,-77,1,0,0,response3disk,6,125,19,4,1,0,0,rectangle,19,4,1,0,0,0,6,"[3,220,225,91,201,33,145,146,141,168,201,73,269,79,123,44,28,245,187,150]",19,4,1,0,0,0,124,124,148,1,,,,,,,,,,,,,,,,,,,,,,,
,,,,,,,,,,,,,,,,,,,,,,,,,,,,,,,,,,,,,,,,,,,5ee9e9d06580b8000940f89f,5fe1a6f32fbe51c368aa13ec,2020-12-22_08h58.00.575,FlowerSimilarity_Experiment,2020.1.2,Win32,60,5fe17d4a51f3a9c1a60f9869,,,,,,,,,,,,,,,,,,,2,FF,,4,0.90149,,,,,,,,,,,,,,,,,,,,,,,,,,,,,,,,,,45,-87,1,0,0,response3disk,5,126,16,-2,1,0,0,rectangle,16,-2,1,0,0,0,6,"[3,220,225,91,201,33,145,146,141,168,201,73,269,79,123,44,28,245,187,150]",16,-2,1,0,0,0,125,125,80,1,,,,,,,,,,,,,,,,,,,,,,,
,,,,,,,,,,,,,,,,,,,,,,,,,,,,,,,,,,,,,,,,,,,5ee9e9d06580b8000940f89f,5fe1a6f32fbe51c368aa13ec,2020-12-22_08h58.00.575,FlowerSimilarity_Experiment,2020.1.2,Win32,60,5fe17d4a51f3a9c1a60f9869,,,,,,,,,,,,,,,,,,,7,PF,,4,0.63675,,,,,,,,,,,,,,,,,,,,,,,,,,,,,,,,,,58,-90,1,0,0,response3disk,2,127,21,0,1,0,0,rectangle,21,0,1,0,0,0,1,"[3,220,225,91,201,33,145,146,141,168,201,73,269,79,123,44,28,245,187,150]",21,0,1,0,0,0,126,126,32,1,,,,,,,,,,,,,,,,,,,,,,,
,,,,,,,,,,,,,,,,,,,,,,,,,,,,,,,,,,,,,,,,,,,5ee9e9d06580b8000940f89f,5fe1a6f32fbe51c368aa13ec,2020-12-22_08h58.00.575,FlowerSimilarity_Experiment,2020.1.2,Win32,60,5fe17d4a51f3a9c1a60f9869,,,,,,,,,,,,,,,,,,,6,FF,,6,2.05183,,,,,,,,,,,,,,,,,,,,,,,,,,,,,,,,,,119,71,1,0,0,response1disk,7,128,32,-7,1,0,0,rectangle,32,-7,1,0,0,0,3,"[3,220,225,91,201,33,145,146,141,168,201,73,269,79,123,44,28,245,187,150]",32,-7,1,0,0,0,127,127,18,1,,,,,,,,,,,,,,,,,,,,,,,
,,,,,,,,,,,,,,,,,,,,,,,,,,,,,,,,,,,,,,,,,,,5ee9e9d06580b8000940f89f,5fe1a6f32fbe51c368aa13ec,2020-12-22_08h58.00.575,FlowerSimilarity_Experiment,2020.1.2,Win32,60,5fe17d4a51f3a9c1a60f9869,,,,,,,,,,,,,,,,,,,8,PF,,0,1.455275,,,,,,,,,,,,,,,,,,,,,,,,,,,,,,,,,,-47,88,1,0,0,response7disk,5,129,11,-17,1,0,0,rectangle,11,-17,1,0,0,0,7,"[3,220,225,91,201,33,145,146,141,168,201,73,269,79,123,44,28,245,187,150]",11,-17,1,0,0,0,128,128,98,1,,,,,,,,,,,,,,,,,,,,,,,
,,,,,,,,,,,,,,,,,,,,,,,,,,,,,,,,,,,,,,,,,,,5ee9e9d06580b8000940f89f,5fe1a6f32fbe51c368aa13ec,2020-12-22_08h58.00.575,FlowerSimilarity_Experiment,2020.1.2,Win32,60,5fe17d4a51f3a9c1a60f9869,,,,,,,,,,,,,,,,,,,2,FF,,4,1.186855,,,,,,,,,,,,,,,,,,,,,,,,,,,,,,,,,,69,-86,1,0,0,response3disk,8,130,26,-2,1,0,0,rectangle,26,-2,1,0,0,0,3,"[3,220,225,91,201,33,145,146,141,168,201,73,269,79,123,44,28,245,187,150]",26,-2,1,0,0,0,129,129,62,1,,,,,,,,,,,,,,,,,,,,,,,
,,,,,,,,,,,,,,,,,,,,,,,,,,,,,,,,,,,,,,,,,,,5ee9e9d06580b8000940f89f,5fe1a6f32fbe51c368aa13ec,2020-12-22_08h58.00.575,FlowerSimilarity_Experiment,2020.1.2,Win32,60,5fe17d4a51f3a9c1a60f9869,,,,,,,,,,,,,,,,,,,5,PF,,6,1.25229,,,,,,,,,,,,,,,,,,,,,,,,,,,,,,,,,,90,49,1,0,0,response1disk,6,131,28,-3,1,0,0,rectangle,28,-3,1,0,0,0,5,"[3,220,225,91,201,33,145,146,141,168,201,73,269,79,123,44,28,245,187,150]",28,-3,1,0,0,0,130,130,103,1,,,,,,,,,,,,,,,,,,,,,,,
,,,,,,,,,,,,,,,,,,,,,,,,,,,,,,,,,,,,,,,,,,,5ee9e9d06580b8000940f89f,5fe1a6f32fbe51c368aa13ec,2020-12-22_08h58.00.575,FlowerSimilarity_Experiment,2020.1.2,Win32,60,5fe17d4a51f3a9c1a60f9869,,,,,,,,,,,,,,,,,,,4,FF,,6,1.10523,,,,,,,,,,,,,,,,,,,,,,,,,,,,,,,,,,108,56,1,0,0,response1disk,9,132,3,1,1,0,0,rectangle,3,1,1,0,0,0,2,"[3,220,225,91,201,33,145,146,141,168,201,73,269,79,123,44,28,245,187,150]",3,1,1,0,0,0,131,131,90,1,,,,,,,,,,,,,,,,,,,,,,,
,,,,,,,,,,,,,,,,,,,,,,,,,,,,,,,,,,,,,,,,,,,5ee9e9d06580b8000940f89f,5fe1a6f32fbe51c368aa13ec,2020-12-22_08h58.00.575,FlowerSimilarity_Experiment,2020.1.2,Win32,60,5fe17d4a51f3a9c1a60f9869,,,,,,,,,,,,,,,,,,,5,FF,,6,1.104105,,,,,,,,,,,,,,,,,,,,,,,,,,,,,,,,,,116,55,1,0,0,response1disk,4,133,-12,12,1,0,0,rectangle,-12,12,1,0,0,0,5,"[3,220,225,91,201,33,145,146,141,168,201,73,269,79,123,44,28,245,187,150]",-12,12,1,0,0,0,132,132,8,1,,,,,,,,,,,,,,,,,,,,,,,
,,,,,,,,,,,,,,,,,,,,,,,,,,,,,,,,,,,,,,,,,,,5ee9e9d06580b8000940f89f,5fe1a6f32fbe51c368aa13ec,2020-12-22_08h58.00.575,FlowerSimilarity_Experiment,2020.1.2,Win32,60,5fe17d4a51f3a9c1a60f9869,,,,,,,,,,,,,,,,,,,1,PF,,6,0.65307,,,,,,,,,,,,,,,,,,,,,,,,,,,,,,,,,,81,40,1,0,0,response1disk,3,134,31,3,1,0,0,rectangle,31,3,1,0,0,0,3,"[3,220,225,91,201,33,145,146,141,168,201,73,269,79,123,44,28,245,187,150]",31,3,1,0,0,0,133,133,1,1,,,,,,,,,,,,,,,,,,,,,,,
,,,,,,,,,,,,,,,,,,,,,,,,,,,,,,,,,,,,,,,,,,,5ee9e9d06580b8000940f89f,5fe1a6f32fbe51c368aa13ec,2020-12-22_08h58.00.575,FlowerSimilarity_Experiment,2020.1.2,Win32,60,5fe17d4a51f3a9c1a60f9869,,,,,,,,,,,,,,,,,,,2,FF,,6,0.466975,,,,,,,,,,,,,,,,,,,,,,,,,,,,,,,,,,106,34,1,0,0,response1disk,7,135,8,-7,1,0,0,rectangle,8,-7,1,0,0,0,1,"[3,220,225,91,201,33,145,146,141,168,201,73,269,79,123,44,28,245,187,150]",8,-7,1,0,0,0,134,134,63,1,,,,,,,,,,,,,,,,,,,,,,,
,,,,,,,,,,,,,,,,,,,,,,,,,,,,,,,,,,,,,,,,,,,5ee9e9d06580b8000940f89f,5fe1a6f32fbe51c368aa13ec,2020-12-22_08h58.00.575,FlowerSimilarity_Experiment,2020.1.2,Win32,60,5fe17d4a51f3a9c1a60f9869,,,,,,,,,,,,,,,,,,,2,FF,,6,0.451935,,,,,,,,,,,,,,,,,,,,,,,,,,,,,,,,,,93,48,1,0,0,response1disk,6,136,26,-2,1,0,0,rectangle,26,-2,1,0,0,0,7,"[3,220,225,91,201,33,145,146,141,168,201,73,269,79,123,44,28,245,187,150]",26,-2,1,0,0,0,135,135,40,1,,,,,,,,,,,,,,,,,,,,,,,
,,,,,,,,,,,,,,,,,,,,,,,,,,,,,,,,,,,,,,,,,,,5ee9e9d06580b8000940f89f,5fe1a6f32fbe51c368aa13ec,2020-12-22_08h58.00.575,FlowerSimilarity_Experiment,2020.1.2,Win32,60,5fe17d4a51f3a9c1a60f9869,,,,,,,,,,,,,,,,,,,1,FF,,6,0.85456,,,,,,,,,,,,,,,,,,,,,,,,,,,,,,,,,,126,48,1,0,0,response1disk,6,137,25,5,1,0,0,rectangle,25,5,1,0,0,0,3,"[3,220,225,91,201,33,145,146,141,168,201,73,269,79,123,44,28,245,187,150]",25,5,1,0,0,0,136,136,58,1,,,,,,,,,,,,,,,,,,,,,,,
,,,,,,,,,,,,,,,,,,,,,,,,,,,,,,,,,,,,,,,,,,,5ee9e9d06580b8000940f89f,5fe1a6f32fbe51c368aa13ec,2020-12-22_08h58.00.575,FlowerSimilarity_Experiment,2020.1.2,Win32,60,5fe17d4a51f3a9c1a60f9869,,,,,,,,,,,,,,,,,,,5,PF,,6,5.007125,,,,,,,,,,,,,,,,,,,,,,,,,,,,,,,,,,66,23,1,0,0,response1disk,8,138,23,1,1,0,0,rectangle,23,1,1,0,0,0,2,"[3,220,225,91,201,33,145,146,141,168,201,73,269,79,123,44,28,245,187,150]",23,1,1,0,0,0,137,137,149,1,,,,,,,,,,,,,,,,,,,,,,,
,,,,,,,,,,,,,,,,,,,,,,,,,,,,,,,,,,,,,,,,,,,5ee9e9d06580b8000940f89f,5fe1a6f32fbe51c368aa13ec,2020-12-22_08h58.00.575,FlowerSimilarity_Experiment,2020.1.2,Win32,60,5fe17d4a51f3a9c1a60f9869,,,,,,,,,,,,,,,,,,,3,FF,,6,4.87301,,,,,,,,,,,,,,,,,,,,,,,,,,,,,,,,,,75,33,1,0,0,response1disk,8,139,-9,1,1,0,0,rectangle,-9,1,1,0,0,0,6,"[3,220,225,91,201,33,145,146,141,168,201,73,269,79,123,44,28,245,187,150]",-9,1,1,0,0,0,138,138,44,1,,,,,,,,,,,,,,,,,,,,,,,
,,,,,,,,,,,,,,,,,,,,,,,,,,,,,,,,,,,,,,,,,,,5ee9e9d06580b8000940f89f,5fe1a6f32fbe51c368aa13ec,2020-12-22_08h58.00.575,FlowerSimilarity_Experiment,2020.1.2,Win32,60,5fe17d4a51f3a9c1a60f9869,,,,,,,,,,,,,,,,,,,1,FF,,5,0.569265,,,,,,,,,,,,,,,,,,,,,,,,,,,,,,,,,,72,-40,1,0,0,response3disk,3,140,30,17,1,0,0,rectangle,30,17,1,0,0,0,0,"[3,220,225,91,201,33,145,146,141,168,201,73,269,79,123,44,28,245,187,150]",30,17,1,0,0,0,139,139,99,1,,,,,,,,,,,,,,,,,,,,,,,
,,,,,,,,,,,,,,,,,,,,,,,,,,,,,,,,,,,,,,,,,,,5ee9e9d06580b8000940f89f,5fe1a6f32fbe51c368aa13ec,2020-12-22_08h58.00.575,FlowerSimilarity_Experiment,2020.1.2,Win32,60,5fe17d4a51f3a9c1a60f9869,,,,,,,,,,,,,,,,,,,6,FF,,6,0.48597,,,,,,,,,,,,,,,,,,,,,,,,,,,,,,,,,,108,40,1,0,0,response1disk,2,141,6,1,1,0,0,rectangle,-46,121,1,0,0,0,0,"[3,220,225,91,201,33,145,146,141,168,201,73,269,79,123,44,28,245,187,150]",20,-5,1,0,0,0,140,140,112,1,response7disk_3,rectangle,,,,,,,,,,,,,,,,,,,,,
,,,,,,,,,,,,,,,,,,,,,,,,,,,,,,,,,,,,,,,,,,,5ee9e9d06580b8000940f89f,5fe1a6f32fbe51c368aa13ec,2020-12-22_08h58.00.575,FlowerSimilarity_Experiment,2020.1.2,Win32,60,5fe17d4a51f3a9c1a60f9869,,,,,,,,,,,,,,,,,,,9,FF,,6,0.58989,,,,,,,,,,,,,,,,,,,,,,,,,,,,,,,,,,91,46,1,0,0,response1disk,9,142,22,1,1,0,0,rectangle,22,1,1,0,0,0,7,"[3,220,225,91,201,33,145,146,141,168,201,73,269,79,123,44,28,245,187,150]",22,1,1,0,0,0,141,141,17,1,,,,,,,,,,,,,,,,,,,,,,,
,,,,,,,,,,,,,,,,,,,,,,,,,,,,,,,,,,,,,,,,,,,5ee9e9d06580b8000940f89f,5fe1a6f32fbe51c368aa13ec,2020-12-22_08h58.00.575,FlowerSimilarity_Experiment,2020.1.2,Win32,60,5fe17d4a51f3a9c1a60f9869,,,,,,,,,,,,,,,,,,,8,PF,,0,0.852715,,,,,,,,,,,,,,,,,,,,,,,,,,,,,,,,,,-40,97,1,0,0,response7disk,8,143,20,-17,1,0,0,rectangle,20,-17,1,0,0,0,0,"[3,220,225,91,201,33,145,146,141,168,201,73,269,79,123,44,28,245,187,150]",20,-17,1,0,0,0,142,142,153,1,,,,,,,,,,,,,,,,,,,,,,,
,,,,,,,,,,,,,,,,,,,,,,,,,,,,,,,,,,,,,,,,,,,5ee9e9d06580b8000940f89f,5fe1a6f32fbe51c368aa13ec,2020-12-22_08h58.00.575,FlowerSimilarity_Experiment,2020.1.2,Win32,60,5fe17d4a51f3a9c1a60f9869,,,,,,,,,,,,,,,,,,,8,PF,,6,0.835895,,,,,,,,,,,,,,,,,,,,,,,,,,,,,,,,,,75,44,1,0,0,response1disk,9,144,30,1,1,0,0,rectangle,30,1,1,0,0,0,3,"[3,220,225,91,201,33,145,146,141,168,201,73,269,79,123,44,28,245,187,150]",30,1,1,0,0,0,143,143,42,1,,,,,,,,,,,,,,,,,,,,,,,
,,,,,,,,,,,,,,,,,,,,,,,,,,,,,,,,,,,,,,,,,,,5ee9e9d06580b8000940f89f,5fe1a6f32fbe51c368aa13ec,2020-12-22_08h58.00.575,FlowerSimilarity_Experiment,2020.1.2,Win32,60,5fe17d4a51f3a9c1a60f9869,,,,,,,,,,,,,,,,,,,8,FF,,6,0.73815,,,,,,,,,,,,,,,,,,,,,,,,,,,,,,,,,,74,53,1,0,0,response1disk,7,145,21,8,1,0,0,rectangle,101,55,1,0,0,6,6,"[3,220,225,91,201,33,145,146,141,168,201,73,269,79,123,44,28,245,187,150]",23,2,1,0,0,0,144,144,86,1,response1disk_3,rectangle,,,,,,,,,,,,,,,,,,,,,
,,,,,,,,,,,,,,,,,,,,,,,,,,,,,,,,,,,,,,,,,,,5ee9e9d06580b8000940f89f,5fe1a6f32fbe51c368aa13ec,2020-12-22_08h58.00.575,FlowerSimilarity_Experiment,2020.1.2,Win32,60,5fe17d4a51f3a9c1a60f9869,,,,,,,,,,,,,,,,,,,3,PF,,6,1.40627,,,,,,,,,,,,,,,,,,,,,,,,,,,,,,,,,,77,34,1,0,0,response1disk,5,146,21,-11,1,0,0,rectangle,-108,-80,1,0,0,6,2,"[3,220,225,91,201,33,145,146,141,168,201,73,269,79,123,44,28,245,187,150]",-4,-7,1,0,0,0,145,145,66,1,response5disk_3,rectangle,,,,,,,,,,,,,,,,,,,,,
,,,,,,,,,,,,,,,,,,,,,,,,,,,,,,,,,,,,,,,,,,,5ee9e9d06580b8000940f89f,5fe1a6f32fbe51c368aa13ec,2020-12-22_08h58.00.575,FlowerSimilarity_Experiment,2020.1.2,Win32,60,5fe17d4a51f3a9c1a60f9869,,,,,,,,,,,,,,,,,,,8,FF,,4,1.989755,,,,,,,,,,,,,,,,,,,,,,,,,,,,,,,,,,85,-121,1,0,0,response3disk,6,147,-4,-8,1,0,0,rectangle,-4,-8,1,0,0,6,3,"[3,220,225,91,201,33,145,146,141,168,201,73,269,79,123,44,28,245,187,150]",-4,-8,1,0,0,0,146,146,37,1,,,,,,,,,,,,,,,,,,,,,,,
,,,,,,,,,,,,,,,,,,,,,,,,,,,,,,,,,,,,,,,,,,,5ee9e9d06580b8000940f89f,5fe1a6f32fbe51c368aa13ec,2020-12-22_08h58.00.575,FlowerSimilarity_Experiment,2020.1.2,Win32,60,5fe17d4a51f3a9c1a60f9869,,,,,,,,,,,,,,,,,,,3,PF,,0,1.50453,,,,,,,,,,,,,,,,,,,,,,,,,,,,,,,,,,-44,88,1,0,0,response7disk,3,148,-4,-9,1,0,0,rectangle,-4,-9,1,0,0,6,4,"[3,220,225,91,201,33,145,146,141,168,201,73,269,79,123,44,28,245,187,150]",-4,-9,1,0,0,0,147,147,4,1,,,,,,,,,,,,,,,,,,,,,,,
,,,,,,,,,,,,,,,,,,,,,,,,,,,,,,,,,,,,,,,,,,,5ee9e9d06580b8000940f89f,5fe1a6f32fbe51c368aa13ec,2020-12-22_08h58.00.575,FlowerSimilarity_Experiment,2020.1.2,Win32,60,5fe17d4a51f3a9c1a60f9869,,,,,,,,,,,,,,,,,,,1,FF,,5,1.104395,,,,,,,,,,,,,,,,,,,,,,,,,,,,,,,,,,66,-41,1,0,0,response3disk,2,149,-23,9,1,0,0,rectangle,-23,9,1,0,0,6,7,"[3,220,225,91,201,33,145,146,141,168,201,73,269,79,123,44,28,245,187,150]",-23,9,1,0,0,0,148,148,2,1,,,,,,,,,,,,,,,,,,,,,,,
,,,,,,,,,,,,,,,,,,,,,,,,,,,,,,,,,,,,,,,,,,,5ee9e9d06580b8000940f89f,5fe1a6f32fbe51c368aa13ec,2020-12-22_08h58.00.575,FlowerSimilarity_Experiment,2020.1.2,Win32,60,5fe17d4a51f3a9c1a60f9869,,,,,,,,,,,,,,,,,,,4,PF,,5,1.3681,,,,,,,,,,,,,,,,,,,,,,,,,,,,,,,,,,118,-49,1,0,0,response3disk,9,150,8,-13,1,0,0,rectangle,-65,48,1,0,0,1,1,"[3,220,225,91,201,33,145,146,141,168,201,73,269,79,123,44,28,245,187,150]",1,2,1,0,0,0,149,149,75,1,response7disk_3,rectangle,,,,,,,,,,,,,,,,,,,,,
,,,,,,,,,,,,,,,,,,,,,,,,,,,,,,,,,,,,,,,,,,,5ee9e9d06580b8000940f89f,5fe1a6f32fbe51c368aa13ec,2020-12-22_08h58.00.575,FlowerSimilarity_Experiment,2020.1.2,Win32,60,5fe17d4a51f3a9c1a60f9869,,,,,,,,,,,,,,,,,,,3,FF,,5,1.555355,,,,,,,,,,,,,,,,,,,,,,,,,,,,,,,,,,75,-43,1,0,0,response3disk,5,151,16,-1,1,0,0,rectangle,16,-1,1,0,0,1,2,"[3,220,225,91,201,33,145,146,141,168,201,73,269,79,123,44,28,245,187,150]",16,-1,1,0,0,0,150,150,101,1,,,,,,,,,,,,,,,,,,,,,,,
,,,,,,,,,,,,,,,,,,,,,,,,,,,,,,,,,,,,,,,,,,,5ee9e9d06580b8000940f89f,5fe1a6f32fbe51c368aa13ec,2020-12-22_08h58.00.575,FlowerSimilarity_Experiment,2020.1.2,Win32,60,5fe17d4a51f3a9c1a60f9869,,,,,,,,,,,,,,,,,,,9,FF,,6,1.022215,,,,,,,,,,,,,,,,,,,,,,,,,,,,,,,,,,53,44,1,0,0,response1disk,3,152,33,-8,1,0,0,rectangle,33,-8,1,0,0,1,5,"[3,220,225,91,201,33,145,146,141,168,201,73,269,79,123,44,28,245,187,150]",33,-8,1,0,0,0,151,151,141,1,,,,,,,,,,,,,,,,,,,,,,,
,,,,,,,,,,,,,,,,,,,,,,,,,,,,,,,,,,,,,,,,,,,5ee9e9d06580b8000940f89f,5fe1a6f32fbe51c368aa13ec,2020-12-22_08h58.00.575,FlowerSimilarity_Experiment,2020.1.2,Win32,60,5fe17d4a51f3a9c1a60f9869,,,,,,,,,,,,,,,,,,,6,PF,,0,0.90427,,,,,,,,,,,,,,,,,,,,,,,,,,,,,,,,,,-55,111,1,0,0,response7disk,6,153,20,-10,1,0,0,rectangle,20,-10,1,0,0,1,6,"[3,220,225,91,201,33,145,146,141,168,201,73,269,79,123,44,28,245,187,150]",20,-10,1,0,0,0,152,152,0,1,,,,,,,,,,,,,,,,,,,,,,,
,,,,,,,,,,,,,,,,,,,,,,,,,,,,,,,,,,,,,,,,,,,5ee9e9d06580b8000940f89f,5fe1a6f32fbe51c368aa13ec,2020-12-22_08h58.00.575,FlowerSimilarity_Experiment,2020.1.2,Win32,60,5fe17d4a51f3a9c1a60f9869,,,,,,,,,,,,,,,,,,,8,FF,,6,1.23537,,,,,,,,,,,,,,,,,,,,,,,,,,,,,,,,,,69,48,1,0,0,response1disk,2,154,23,1,1,0,0,rectangle,23,1,1,0,0,1,0,"[3,220,225,91,201,33,145,146,141,168,201,73,269,79,123,44,28,245,187,150]",23,1,1,0,0,0,153,153,22,1,,,,,,,,,,,,,,,,,,,,,,,
,,,,,,,,,,,,,,,,,,,,,,,,,,,,,,,,,,,,,,,,,,,5ee9e9d06580b8000940f89f,5fe1a6f32fbe51c368aa13ec,2020-12-22_08h58.00.575,FlowerSimilarity_Experiment,2020.1.2,Win32,60,5fe17d4a51f3a9c1a60f9869,,,,,,,,,,,,,,,,,,,9,PF,,5,1.62304,,,,,,,,,,,,,,,,,,,,,,,,,,,,,,,,,,128,-52,1,0,0,response3disk,3,155,25,-9,1,0,0,rectangle,25,-9,1,0,0,1,7,"[3,220,225,91,201,33,145,146,141,168,201,73,269,79,123,44,28,245,187,150]",25,-9,1,0,0,0,154,154,119,1,,,,,,,,,,,,,,,,,,,,,,,
,,,,,,,,,,,,,,,,,,,,,,,,,,,,,,,,,,,,,,,,,,,5ee9e9d06580b8000940f89f,5fe1a6f32fbe51c368aa13ec,2020-12-22_08h58.00.575,FlowerSimilarity_Experiment,2020.1.2,Win32,60,5fe17d4a51f3a9c1a60f9869,,,,,,,,,,,,,,,,,,,6,PF,,7,1.101625,,,,,,,,,,,,,,,,,,,,,,,,,,,,,,,,,,63,100,1,0,0,response1disk,5,156,26,1,1,0,0,rectangle,26,1,1,0,0,1,1,"[3,220,225,91,201,33,145,146,141,168,201,73,269,79,123,44,28,245,187,150]",26,1,1,0,0,0,155,155,59,1,,,,,,,,,,,,,,,,,,,,,,,
,,,,,,,,,,,,,,,,,,,,,,,,,,,,,,,,,,,,,,,,,,,5ee9e9d06580b8000940f89f,5fe1a6f32fbe51c368aa13ec,2020-12-22_08h58.00.575,FlowerSimilarity_Experiment,2020.1.2,Win32,60,5fe17d4a51f3a9c1a60f9869,,,,,,,,,,,,,,,,,,,1,PF,,7,0.855345,,,,,,,,,,,,,,,,,,,,,,,,,,,,,,,,,,39,76,1,0,0,response1disk,7,157,23,-3,1,0,0,rectangle,23,-3,1,0,0,1,4,"[3,220,225,91,201,33,145,146,141,168,201,73,269,79,123,44,28,245,187,150]",23,-3,1,0,0,0,156,156,150,1,,,,,,,,,,,,,,,,,,,,,,,
,,,,,,,,,,,,,,,,,,,,,,,,,,,,,,,,,,,,,,,,,,,5ee9e9d06580b8000940f89f,5fe1a6f32fbe51c368aa13ec,2020-12-22_08h58.00.575,FlowerSimilarity_Experiment,2020.1.2,Win32,60,5fe17d4a51f3a9c1a60f9869,,,,,,,,,,,,,,,,,,,2,FF,,7,0.98871,,,,,,,,,,,,,,,,,,,,,,,,,,,,,,,,,,40,78,1,0,0,response1disk,3,158,24,5,1,0,0,rectangle,24,5,1,0,0,1,4,"[3,220,225,91,201,33,145,146,141,168,201,73,269,79,123,44,28,245,187,150]",24,5,1,0,0,0,157,157,104,1,,,,,,,,,,,,,,,,,,,,,,,
,,,,,,,,,,,,,,,,,,,,,,,,,,,,,,,,,,,,,,,,,,,5ee9e9d06580b8000940f89f,5fe1a6f32fbe51c368aa13ec,2020-12-22_08h58.00.575,FlowerSimilarity_Experiment,2020.1.2,Win32,60,5fe17d4a51f3a9c1a60f9869,,,,,,,,,,,,,,,,,,,2,PF,,5,2.42282,,,,,,,,,,,,,,,,,,,,,,,,,,,,,,,,,,82,-49,1,0,0,response3disk,9,159,5,-16,1,0,0,rectangle,5,-16,1,0,0,1,2,"[3,220,225,91,201,33,145,146,141,168,201,73,269,79,123,44,28,245,187,150]",5,-16,1,0,0,0,158,158,39,1,,,,,,,,,,,,,,,,,,,,,,,
,,,,,,,,,,,,,,,,,,,,,,,,,,,,,,,,,,,,,,,,,,,5ee9e9d06580b8000940f89f,5fe1a6f32fbe51c368aa13ec,2020-12-22_08h58.00.575,FlowerSimilarity_Experiment,2020.1.2,Win32,60,5fe17d4a51f3a9c1a60f9869,,,,,,,,,,,,,,,,,,,5,PF,,6,2.449685,,,,,,,,,,,,,,,,,,,,,,,,,,,,,,,,,,86,55,1,0,0,response1disk,3,160,-15,-10,1,0,0,rectangle,-15,-10,1,0,0,1,3,"[3,220,225,91,201,33,145,146,141,168,201,73,269,79,123,44,28,245,187,150]",-15,-10,1,0,0,0,159,159,109,1,,,,,,,,,,,,,,,,,,,,,,,
,,,,,,,,,,,,,,,,,,,,,,,,,,,,,,,,,,,,,,,,,,,5ee9e9d06580b8000940f89f,5fe1a6f32fbe51c368aa13ec,2020-12-22_08h58.00.575,FlowerSimilarity_Experiment,2020.1.2,Win32,60,5fe17d4a51f3a9c1a60f9869,,,,,,,,,,,,,,,,,,,3,FF,,6,0.750705,,,,,,,,,,,,,,,,,,,,,,,,,,,,,,,,,,79,54,1,0,0,response1disk,9,161,25,-2,1,0,0,rectangle,25,-2,1,0,0,1,6,"[3,220,225,91,201,33,145,146,141,168,201,73,269,79,123,44,28,245,187,150]",25,-2,1,0,0,0,160,160,143,1,,,,,,,,,,,,,,,,,,,,,,,
,,,,,,,,,,,,,,,,,,,,,,,,,,,,,,,,,,,,,,,,,,,5ee9e9d06580b8000940f89f,5fe1a6f32fbe51c368aa13ec,2020-12-22_08h58.00.575,FlowerSimilarity_Experiment,2020.1.2,Win32,60,5fe17d4a51f3a9c1a60f9869,,,,,,,,,,,,,,,,,,,9,FF,,7,0.917815,,,,,,,,,,,,,,,,,,,,,,,,,,,,,,,,,,53,91,1,0,0,response1disk,7,162,31,-1,1,0,0,rectangle,31,-1,1,0,0,1,7,"[3,220,225,91,201,33,145,146,141,168,201,73,269,79,123,44,28,245,187,150]",31,-1,1,0,0,0,161,161,100,1,,,,,,,,,,,,,,,,,,,,,,,
,,,,,,,,,,,,,,,,,,,,,,,,,,,,,,,,,,,,,,,,,,,5ee9e9d06580b8000940f89f,5fe1a6f32fbe51c368aa13ec,2020-12-22_08h58.00.575,FlowerSimilarity_Experiment,2020.1.2,Win32,60,5fe17d4a51f3a9c1a60f9869,,,,,,,,,,,,,,,,,,,,,,,,,,,,,,,,,,,,,,,,,,,,,,,,,,,,,,,,,,,,,,,,,,,,,,,,,,,,,,,,,,,,,,,,,,,0,0,0,0,1,,,,,,,,,,,,,,,,
,,,,,,,,,,,,,,,,,,,,,,,,,,,,,,,,,,,,,,,,,,,5ee9e9d06580b8000940f89f,5fe1a6f32fbe51c368aa13ec,2020-12-22_08h58.00.575,FlowerSimilarity_Experiment,2020.1.2,Win32,60,5fe17d4a51f3a9c1a60f9869,,,,,,,,,,,,,,,,,,,3,FF,,7,1.518115,,,,,,,,,,,,,,,,,,,,,,,,,,,,,,,,,,34,67,1,0,0,response1disk,6,163,17,-7,1,0,0,rectangle,17,-7,1,0,0,1,5,"[3,220,225,91,201,33,145,146,141,168,201,73,269,79,123,44,28,245,187,150]",17,-7,1,0,0,0,0,0,95,1,,,,,,,,,,,,,,,,,,,,,,,
,,,,,,,,,,,,,,,,,,,,,,,,,,,,,,,,,,,,,,,,,,,5ee9e9d06580b8000940f89f,5fe1a6f32fbe51c368aa13ec,2020-12-22_08h58.00.575,FlowerSimilarity_Experiment,2020.1.2,Win32,60,5fe17d4a51f3a9c1a60f9869,,,,,,,,,,,,,,,,,,,4,FF,,6,1.134055,,,,,,,,,,,,,,,,,,,,,,,,,,,,,,,,,,92,51,1,0,0,response1disk,3,164,33,2,1,0,0,rectangle,33,2,1,0,0,1,3,"[3,220,225,91,201,33,145,146,141,168,201,73,269,79,123,44,28,245,187,150]",33,2,1,0,0,0,1,1,77,1,,,,,,,,,,,,,,,,,,,,,,,
,,,,,,,,,,,,,,,,,,,,,,,,,,,,,,,,,,,,,,,,,,,5ee9e9d06580b8000940f89f,5fe1a6f32fbe51c368aa13ec,2020-12-22_08h58.00.575,FlowerSimilarity_Experiment,2020.1.2,Win32,60,5fe17d4a51f3a9c1a60f9869,,,,,,,,,,,,,,,,,,,9,PF,,0,1.401235,,,,,,,,,,,,,,,,,,,,,,,,,,,,,,,,,,-50,91,1,0,0,response7disk,9,165,-8,3,1,0,0,rectangle,-8,3,1,0,0,1,1,"[3,220,225,91,201,33,145,146,141,168,201,73,269,79,123,44,28,245,187,150]",-8,3,1,0,0,0,2,2,106,1,,,,,,,,,,,,,,,,,,,,,,,
,,,,,,,,,,,,,,,,,,,,,,,,,,,,,,,,,,,,,,,,,,,5ee9e9d06580b8000940f89f,5fe1a6f32fbe51c368aa13ec,2020-12-22_08h58.00.575,FlowerSimilarity_Experiment,2020.1.2,Win32,60,5fe17d4a51f3a9c1a60f9869,,,,,,,,,,,,,,,,,,,1,PF,,1,1.61824,,,,,,,,,,,,,,,,,,,,,,,,,,,,,,,,,,-87,34,1,0,0,response7disk,9,166,-14,2,1,0,0,rectangle,-14,2,1,0,0,1,3,"[3,220,225,91,201,33,145,146,141,168,201,73,269,79,123,44,28,245,187,150]",-14,2,1,0,0,0,3,3,15,1,,,,,,,,,,,,,,,,,,,,,,,
,,,,,,,,,,,,,,,,,,,,,,,,,,,,,,,,,,,,,,,,,,,5ee9e9d06580b8000940f89f,5fe1a6f32fbe51c368aa13ec,2020-12-22_08h58.00.575,FlowerSimilarity_Experiment,2020.1.2,Win32,60,5fe17d4a51f3a9c1a60f9869,,,,,,,,,,,,,,,,,,,7,FF,,7,1.334615,,,,,,,,,,,,,,,,,,,,,,,,,,,,,,,,,,75,113,1,0,0,response1disk,3,167,10,-12,1,0,0,rectangle,10,-12,1,0,0,1,1,"[3,220,225,91,201,33,145,146,141,168,201,73,269,79,123,44,28,245,187,150]",10,-12,1,0,0,0,4,4,73,1,,,,,,,,,,,,,,,,,,,,,,,
,,,,,,,,,,,,,,,,,,,,,,,,,,,,,,,,,,,,,,,,,,,5ee9e9d06580b8000940f89f,5fe1a6f32fbe51c368aa13ec,2020-12-22_08h58.00.575,FlowerSimilarity_Experiment,2020.1.2,Win32,60,5fe17d4a51f3a9c1a60f9869,,,,,,,,,,,,,,,,,,,7,PF,,7,1.33453,,,,,,,,,,,,,,,,,,,,,,,,,,,,,,,,,,38,77,1,0,0,response1disk,8,168,29,1,1,0,0,rectangle,-92,51,1,0,0,1,1,"[3,220,225,91,201,33,145,146,141,168,201,73,269,79,123,44,28,245,187,150]",-33,4,1,0,0,0,5,5,140,1,response7disk_3,rectangle,,,,,,,,,,,,,,,,,,,,,
,,,,,,,,,,,,,,,,,,,,,,,,,,,,,,,,,,,,,,,,,,,5ee9e9d06580b8000940f89f,5fe1a6f32fbe51c368aa13ec,2020-12-22_08h58.00.575,FlowerSimilarity_Experiment,2020.1.2,Win32,60,5fe17d4a51f3a9c1a60f9869,,,,,,,,,,,,,,,,,,,3,PF,,5,1.41725,,,,,,,,,,,,,,,,,,,,,,,,,,,,,,,,,,98,-51,1,0,0,response3disk,9,169,-34,10,1,0,0,rectangle,-34,10,1,0,0,1,6,"[3,220,225,91,201,33,145,146,141,168,201,73,269,79,123,44,28,245,187,150]",-34,10,1,0,0,0,6,6,79,1,,,,,,,,,,,,,,,,,,,,,,,
,,,,,,,,,,,,,,,,,,,,,,,,,,,,,,,,,,,,,,,,,,,5ee9e9d06580b8000940f89f,5fe1a6f32fbe51c368aa13ec,2020-12-22_08h58.00.575,FlowerSimilarity_Experiment,2020.1.2,Win32,60,5fe17d4a51f3a9c1a60f9869,,,,,,,,,,,,,,,,,,,2,PF,,5,0.631845,,,,,,,,,,,,,,,,,,,,,,,,,,,,,,,,,,80,-57,1,0,0,response3disk,1,170,2,1,1,0,0,rectangle,2,1,1,0,0,1,4,"[3,220,225,91,201,33,145,146,141,168,201,73,269,79,123,44,28,245,187,150]",2,1,1,0,0,0,7,7,9,1,,,,,,,,,,,,,,,,,,,,,,,
,,,,,,,,,,,,,,,,,,,,,,,,,,,,,,,,,,,,,,,,,,,5ee9e9d06580b8000940f89f,5fe1a6f32fbe51c368aa13ec,2020-12-22_08h58.00.575,FlowerSimilarity_Experiment,2020.1.2,Win32,60,5fe17d4a51f3a9c1a60f9869,,,,,,,,,,,,,,,,,,,2,FF,,6,0.816425,,,,,,,,,,,,,,,,,,,,,,,,,,,,,,,,,,94,40,1,0,0,response1disk,2,171,21,2,1,0,0,rectangle,21,2,1,0,0,1,7,"[3,220,225,91,201,33,145,146,141,168,201,73,269,79,123,44,28,245,187,150]",21,2,1,0,0,0,8,8,142,1,,,,,,,,,,,,,,,,,,,,,,,
,,,,,,,,,,,,,,,,,,,,,,,,,,,,,,,,,,,,,,,,,,,5ee9e9d06580b8000940f89f,5fe1a6f32fbe51c368aa13ec,2020-12-22_08h58.00.575,FlowerSimilarity_Experiment,2020.1.2,Win32,60,5fe17d4a51f3a9c1a60f9869,,,,,,,,,,,,,,,,,,,6,FF,,6,1.28465,,,,,,,,,,,,,,,,,,,,,,,,,,,,,,,,,,84,51,1,0,0,response1disk,6,172,23,-5,1,0,0,rectangle,23,-5,1,0,0,1,0,"[3,220,225,91,201,33,145,146,141,168,201,73,269,79,123,44,28,245,187,150]",23,-5,1,0,0,0,9,9,91,1,,,,,,,,,,,,,,,,,,,,,,,
,,,,,,,,,,,,,,,,,,,,,,,,,,,,,,,,,,,,,,,,,,,5ee9e9d06580b8000940f89f,5fe1a6f32fbe51c368aa13ec,2020-12-22_08h58.00.575,FlowerSimilarity_Experiment,2020.1.2,Win32,60,5fe17d4a51f3a9c1a60f9869,,,,,,,,,,,,,,,,,,,9,FF,,7,0.65076,,,,,,,,,,,,,,,,,,,,,,,,,,,,,,,,,,43,72,1,0,0,response1disk,8,173,15,-3,1,0,0,rectangle,15,-3,1,0,0,1,7,"[3,220,225,91,201,33,145,146,141,168,201,73,269,79,123,44,28,245,187,150]",15,-3,1,0,0,0,10,10,6,1,,,,,,,,,,,,,,,,,,,,,,,
,,,,,,,,,,,,,,,,,,,,,,,,,,,,,,,,,,,,,,,,,,,5ee9e9d06580b8000940f89f,5fe1a6f32fbe51c368aa13ec,2020-12-22_08h58.00.575,FlowerSimilarity_Experiment,2020.1.2,Win32,60,5fe17d4a51f3a9c1a60f9869,,,,,,,,,,,,,,,,,,,7,FF,,7,0.48393,,,,,,,,,,,,,,,,,,,,,,,,,,,,,,,,,,49,73,1,0,0,response1disk,5,174,23,6,1,0,0,rectangle,23,6,1,0,0,1,3,"[3,220,225,91,201,33,145,146,141,168,201,73,269,79,123,44,28,245,187,150]",23,6,1,0,0,0,11,11,156,1,,,,,,,,,,,,,,,,,,,,,,,
,,,,,,,,,,,,,,,,,,,,,,,,,,,,,,,,,,,,,,,,,,,5ee9e9d06580b8000940f89f,5fe1a6f32fbe51c368aa13ec,2020-12-22_08h58.00.575,FlowerSimilarity_Experiment,2020.1.2,Win32,60,5fe17d4a51f3a9c1a60f9869,,,,,,,,,,,,,,,,,,,5,PF,,0,0.964595,,,,,,,,,,,,,,,,,,,,,,,,,,,,,,,,,,-71,96,1,0,0,response7disk,5,175,-13,4,1,0,0,rectangle,-13,4,1,0,0,1,1,"[3,220,225,91,201,33,145,146,141,168,201,73,269,79,123,44,28,245,187,150]",-13,4,1,0,0,0,12,12,94,1,,,,,,,,,,,,,,,,,,,,,,,
,,,,,,,,,,,,,,,,,,,,,,,,,,,,,,,,,,,,,,,,,,,5ee9e9d06580b8000940f89f,5fe1a6f32fbe51c368aa13ec,2020-12-22_08h58.00.575,FlowerSimilarity_Experiment,2020.1.2,Win32,60,5fe17d4a51f3a9c1a60f9869,,,,,,,,,,,,,,,,,,,3,FF,,0,0.817415,,,,,,,,,,,,,,,,,,,,,,,,,,,,,,,,,,-48,85,1,0,0,response7disk,7,176,-22,10,1,0,0,rectangle,-22,10,1,0,0,1,7,"[3,220,225,91,201,33,145,146,141,168,201,73,269,79,123,44,28,245,187,150]",-22,10,1,0,0,0,13,13,118,1,,,,,,,,,,,,,,,,,,,,,,,
,,,,,,,,,,,,,,,,,,,,,,,,,,,,,,,,,,,,,,,,,,,5ee9e9d06580b8000940f89f,5fe1a6f32fbe51c368aa13ec,2020-12-22_08h58.00.575,FlowerSimilarity_Experiment,2020.1.2,Win32,60,5fe17d4a51f3a9c1a60f9869,,,,,,,,,,,,,,,,,,,3,FF,,3,1.11776,,,,,,,,,,,,,,,,,,,,,,,,,,,,,,,,,,-45,-75,1,0,0,response5disk,2,177,-5,14,1,0,0,rectangle,-5,14,1,0,0,1,4,"[3,220,225,91,201,33,145,146,141,168,201,73,269,79,123,44,28,245,187,150]",-5,14,1,0,0,0,14,14,93,1,,,,,,,,,,,,,,,,,,,,,,,
,,,,,,,,,,,,,,,,,,,,,,,,,,,,,,,,,,,,,,,,,,,5ee9e9d06580b8000940f89f,5fe1a6f32fbe51c368aa13ec,2020-12-22_08h58.00.575,FlowerSimilarity_Experiment,2020.1.2,Win32,60,5fe17d4a51f3a9c1a60f9869,,,,,,,,,,,,,,,,,,,2,PF,,4,0.78372,,,,,,,,,,,,,,,,,,,,,,,,,,,,,,,,,,40,-83,1,0,0,response3disk,6,178,-2,-5,1,0,0,rectangle,-2,-5,1,0,0,1,6,"[3,220,225,91,201,33,145,146,141,168,201,73,269,79,123,44,28,245,187,150]",-2,-5,1,0,0,0,15,15,113,1,,,,,,,,,,,,,,,,,,,,,,,
,,,,,,,,,,,,,,,,,,,,,,,,,,,,,,,,,,,,,,,,,,,5ee9e9d06580b8000940f89f,5fe1a6f32fbe51c368aa13ec,2020-12-22_08h58.00.575,FlowerSimilarity_Experiment,2020.1.2,Win32,60,5fe17d4a51f3a9c1a60f9869,,,,,,,,,,,,,,,,,,,4,FF,,7,1.5018,,,,,,,,,,,,,,,,,,,,,,,,,,,,,,,,,,38,99,1,0,0,response1disk,6,179,-18,-5,1,0,0,rectangle,-18,-5,1,0,0,1,6,"[3,220,225,91,201,33,145,146,141,168,201,73,269,79,123,44,28,245,187,150]",-18,-5,1,0,0,0,16,16,122,1,,,,,,,,,,,,,,,,,,,,,,,
,,,,,,,,,,,,,,,,,,,,,,,,,,,,,,,,,,,,,,,,,,,5ee9e9d06580b8000940f89f,5fe1a6f32fbe51c368aa13ec,2020-12-22_08h58.00.575,FlowerSimilarity_Experiment,2020.1.2,Win32,60,5fe17d4a51f3a9c1a60f9869,,,,,,,,,,,,,,,,,,,6,FF,,1,1.85066,,,,,,,,,,,,,,,,,,,,,,,,,,,,,,,,,,-85,45,1,0,0,response7disk,1,180,0,-1,1,0,0,rectangle,0,-1,1,0,0,1,1,"[3,220,225,91,201,33,145,146,141,168,201,73,269,79,123,44,28,245,187,150]",0,-1,1,0,0,0,17,17,5,1,,,,,,,,,,,,,,,,,,,,,,,
,,,,,,,,,,,,,,,,,,,,,,,,,,,,,,,,,,,,,,,,,,,5ee9e9d06580b8000940f89f,5fe1a6f32fbe51c368aa13ec,2020-12-22_08h58.00.575,FlowerSimilarity_Experiment,2020.1.2,Win32,60,5fe17d4a51f3a9c1a60f9869,,,,,,,,,,,,,,,,,,,8,PF,,7,0.96746,,,,,,,,,,,,,,,,,,,,,,,,,,,,,,,,,,64,107,1,0,0,response1disk,7,181,13,14,1,0,0,rectangle,13,14,1,0,0,1,5,"[3,220,225,91,201,33,145,146,141,168,201,73,269,79,123,44,28,245,187,150]",13,14,1,0,0,0,18,18,23,1,,,,,,,,,,,,,,,,,,,,,,,
,,,,,,,,,,,,,,,,,,,,,,,,,,,,,,,,,,,,,,,,,,,5ee9e9d06580b8000940f89f,5fe1a6f32fbe51c368aa13ec,2020-12-22_08h58.00.575,FlowerSimilarity_Experiment,2020.1.2,Win32,60,5fe17d4a51f3a9c1a60f9869,,,,,,,,,,,,,,,,,,,5,FF,,7,0.867415,,,,,,,,,,,,,,,,,,,,,,,,,,,,,,,,,,57,104,1,0,0,response1disk,7,182,35,7,1,0,0,rectangle,35,7,1,0,0,1,6,"[3,220,225,91,201,33,145,146,141,168,201,73,269,79,123,44,28,245,187,150]",35,7,1,0,0,0,19,19,7,1,,,,,,,,,,,,,,,,,,,,,,,
,,,,,,,,,,,,,,,,,,,,,,,,,,,,,,,,,,,,,,,,,,,5ee9e9d06580b8000940f89f,5fe1a6f32fbe51c368aa13ec,2020-12-22_08h58.00.575,FlowerSimilarity_Experiment,2020.1.2,Win32,60,5fe17d4a51f3a9c1a60f9869,,,,,,,,,,,,,,,,,,,3,PF,,0,0.883945,,,,,,,,,,,,,,,,,,,,,,,,,,,,,,,,,,-67,121,1,0,0,response7disk,7,183,1,-9,1,0,0,rectangle,1,-9,1,0,0,1,4,"[3,220,225,91,201,33,145,146,141,168,201,73,269,79,123,44,28,245,187,150]",1,-9,1,0,0,0,20,20,41,1,,,,,,,,,,,,,,,,,,,,,,,
,,,,,,,,,,,,,,,,,,,,,,,,,,,,,,,,,,,,,,,,,,,5ee9e9d06580b8000940f89f,5fe1a6f32fbe51c368aa13ec,2020-12-22_08h58.00.575,FlowerSimilarity_Experiment,2020.1.2,Win32,60,5fe17d4a51f3a9c1a60f9869,,,,,,,,,,,,,,,,,,,9,PF,,4,1.20119,,,,,,,,,,,,,,,,,,,,,,,,,,,,,,,,,,46,-121,1,0,0,response3disk,1,184,-14,2,1,0,0,rectangle,-14,2,1,0,0,1,1,"[3,220,225,91,201,33,145,146,141,168,201,73,269,79,123,44,28,245,187,150]",-14,2,1,0,0,0,21,21,74,1,,,,,,,,,,,,,,,,,,,,,,,
,,,,,,,,,,,,,,,,,,,,,,,,,,,,,,,,,,,,,,,,,,,5ee9e9d06580b8000940f89f,5fe1a6f32fbe51c368aa13ec,2020-12-22_08h58.00.575,FlowerSimilarity_Experiment,2020.1.2,Win32,60,5fe17d4a51f3a9c1a60f9869,,,,,,,,,,,,,,,,,,,8,PF,,5,1.062365,,,,,,,,,,,,,,,,,,,,,,,,,,,,,,,,,,61,-44,1,0,0,response3disk,6,185,7,0,1,0,0,rectangle,7,0,1,0,0,1,2,"[3,220,225,91,201,33,145,146,141,168,201,73,269,79,123,44,28,245,187,150]",7,0,1,0,0,0,22,22,161,1,,,,,,,,,,,,,,,,,,,,,,,
,,,,,,,,,,,,,,,,,,,,,,,,,,,,,,,,,,,,,,,,,,,5ee9e9d06580b8000940f89f,5fe1a6f32fbe51c368aa13ec,2020-12-22_08h58.00.575,FlowerSimilarity_Experiment,2020.1.2,Win32,60,5fe17d4a51f3a9c1a60f9869,,,,,,,,,,,,,,,,,,,6,PF,,7,1.25128,,,,,,,,,,,,,,,,,,,,,,,,,,,,,,,,,,37,77,1,0,0,response1disk,3,186,15,8,1,0,0,rectangle,15,8,1,0,0,1,7,"[3,220,225,91,201,33,145,146,141,168,201,73,269,79,123,44,28,245,187,150]",15,8,1,0,0,0,23,23,26,1,,,,,,,,,,,,,,,,,,,,,,,
,,,,,,,,,,,,,,,,,,,,,,,,,,,,,,,,,,,,,,,,,,,5ee9e9d06580b8000940f89f,5fe1a6f32fbe51c368aa13ec,2020-12-22_08h58.00.575,FlowerSimilarity_Experiment,2020.1.2,Win32,60,5fe17d4a51f3a9c1a60f9869,,,,,,,,,,,,,,,,,,,5,PF,,7,0.56932,,,,,,,,,,,,,,,,,,,,,,,,,,,,,,,,,,58,112,1,0,0,response1disk,1,187,10,9,1,0,0,rectangle,54,-102,1,0,0,4,4,"[3,220,225,91,201,33,145,146,141,168,201,73,269,79,123,44,28,245,187,150]",6,8,1,0,0,0,24,24,159,1,response3disk_3,rectangle,,,,,,,,,,,,,,,,,,,,,
,,,,,,,,,,,,,,,,,,,,,,,,,,,,,,,,,,,,,,,,,,,5ee9e9d06580b8000940f89f,5fe1a6f32fbe51c368aa13ec,2020-12-22_08h58.00.575,FlowerSimilarity_Experiment,2020.1.2,Win32,60,5fe17d4a51f3a9c1a60f9869,,,,,,,,,,,,,,,,,,,3,PF,,6,2.706575,,,,,,,,,,,,,,,,,,,,,,,,,,,,,,,,,,100,73,1,0,0,response1disk,6,188,20,8,1,0,0,rectangle,20,8,1,0,0,4,3,"[3,220,225,91,201,33,145,146,141,168,201,73,269,79,123,44,28,245,187,150]",20,8,1,0,0,0,25,25,47,1,,,,,,,,,,,,,,,,,,,,,,,
,,,,,,,,,,,,,,,,,,,,,,,,,,,,,,,,,,,,,,,,,,,5ee9e9d06580b8000940f89f,5fe1a6f32fbe51c368aa13ec,2020-12-22_08h58.00.575,FlowerSimilarity_Experiment,2020.1.2,Win32,60,5fe17d4a51f3a9c1a60f9869,,,,,,,,,,,,,,,,,,,7,PF,,4,1.78509,,,,,,,,,,,,,,,,,,,,,,,,,,,,,,,,,,62,-110,1,0,0,response3disk,7,189,3,-17,1,0,0,rectangle,3,-17,1,0,0,4,2,"[3,220,225,91,201,33,145,146,141,168,201,73,269,79,123,44,28,245,187,150]",3,-17,1,0,0,0,26,26,51,1,,,,,,,,,,,,,,,,,,,,,,,
,,,,,,,,,,,,,,,,,,,,,,,,,,,,,,,,,,,,,,,,,,,5ee9e9d06580b8000940f89f,5fe1a6f32fbe51c368aa13ec,2020-12-22_08h58.00.575,FlowerSimilarity_Experiment,2020.1.2,Win32,60,5fe17d4a51f3a9c1a60f9869,,,,,,,,,,,,,,,,,,,7,FF,,7,0.73394,,,,,,,,,,,,,,,,,,,,,,,,,,,,,,,,,,62,71,1,0,0,response1disk,2,190,38,4,1,0,0,rectangle,38,4,1,0,0,4,4,"[3,220,225,91,201,33,145,146,141,168,201,73,269,79,123,44,28,245,187,150]",38,4,1,0,0,0,27,27,138,1,,,,,,,,,,,,,,,,,,,,,,,
,,,,,,,,,,,,,,,,,,,,,,,,,,,,,,,,,,,,,,,,,,,5ee9e9d06580b8000940f89f,5fe1a6f32fbe51c368aa13ec,2020-12-22_08h58.00.575,FlowerSimilarity_Experiment,2020.1.2,Win32,60,5fe17d4a51f3a9c1a60f9869,,,,,,,,,,,,,,,,,,,8,FF,,7,0.251535,,,,,,,,,,,,,,,,,,,,,,,,,,,,,,,,,,65,107,1,0,0,response1disk,1,191,8,-4,1,0,0,rectangle,8,-4,1,0,0,4,1,"[3,220,225,91,201,33,145,146,141,168,201,73,269,79,123,44,28,245,187,150]",8,-4,1,0,0,0,28,28,20,1,,,,,,,,,,,,,,,,,,,,,,,
,,,,,,,,,,,,,,,,,,,,,,,,,,,,,,,,,,,,,,,,,,,5ee9e9d06580b8000940f89f,5fe1a6f32fbe51c368aa13ec,2020-12-22_08h58.00.575,FlowerSimilarity_Experiment,2020.1.2,Win32,60,5fe17d4a51f3a9c1a60f9869,,,,,,,,,,,,,,,,,,,7,PF,,5,1.60104,,,,,,,,,,,,,,,,,,,,,,,,,,,,,,,,,,83,-28,1,0,0,response3disk,4,192,23,-8,1,0,0,rectangle,23,-8,1,0,0,4,3,"[3,220,225,91,201,33,145,146,141,168,201,73,269,79,123,44,28,245,187,150]",23,-8,1,0,0,0,29,29,43,1,,,,,,,,,,,,,,,,,,,,,,,
,,,,,,,,,,,,,,,,,,,,,,,,,,,,,,,,,,,,,,,,,,,5ee9e9d06580b8000940f89f,5fe1a6f32fbe51c368aa13ec,2020-12-22_08h58.00.575,FlowerSimilarity_Experiment,2020.1.2,Win32,60,5fe17d4a51f3a9c1a60f9869,,,,,,,,,,,,,,,,,,,4,FF,,5,1.03427,,,,,,,,,,,,,,,,,,,,,,,,,,,,,,,,,,76,-53,1,0,0,response3disk,2,193,6,0,1,0,0,rectangle,6,0,1,0,0,4,1,"[3,220,225,91,201,33,145,146,141,168,201,73,269,79,123,44,28,245,187,150]",6,0,1,0,0,0,30,30,13,1,,,,,,,,,,,,,,,,,,,,,,,
,,,,,,,,,,,,,,,,,,,,,,,,,,,,,,,,,,,,,,,,,,,5ee9e9d06580b8000940f89f,5fe1a6f32fbe51c368aa13ec,2020-12-22_08h58.00.575,FlowerSimilarity_Experiment,2020.1.2,Win32,60,5fe17d4a51f3a9c1a60f9869,,,,,,,,,,,,,,,,,,,7,FF,,5,0.317125,,,,,,,,,,,,,,,,,,,,,,,,,,,,,,,,,,114,-57,1,0,0,response3disk,9,194,3,3,1,0,0,rectangle,3,3,1,0,0,4,0,"[3,220,225,91,201,33,145,146,141,168,201,73,269,79,123,44,28,245,187,150]",3,3,1,0,0,0,31,31,155,1,,,,,,,,,,,,,,,,,,,,,,,
,,,,,,,,,,,,,,,,,,,,,,,,,,,,,,,,,,,,,,,,,,,5ee9e9d06580b8000940f89f,5fe1a6f32fbe51c368aa13ec,2020-12-22_08h58.00.575,FlowerSimilarity_Experiment,2020.1.2,Win32,60,5fe17d4a51f3a9c1a60f9869,,,,,,,,,,,,,,,,,,,8,FF,,7,0.76787,,,,,,,,,,,,,,,,,,,,,,,,,,,,,,,,,,68,91,1,0,0,response1disk,5,195,33,16,1,0,0,rectangle,33,16,1,0,0,4,4,"[3,220,225,91,201,33,145,146,141,168,201,73,269,79,123,44,28,245,187,150]",33,16,1,0,0,0,32,32,152,1,,,,,,,,,,,,,,,,,,,,,,,
,,,,,,,,,,,,,,,,,,,,,,,,,,,,,,,,,,,,,,,,,,,5ee9e9d06580b8000940f89f,5fe1a6f32fbe51c368aa13ec,2020-12-22_08h58.00.575,FlowerSimilarity_Experiment,2020.1.2,Win32,60,5fe17d4a51f3a9c1a60f9869,,,,,,,,,,,,,,,,,,,3,PF,,6,0.484505,,,,,,,,,,,,,,,,,,,,,,,,,,,,,,,,,,72,59,1,0,0,response1disk,1,196,11,-2,1,0,0,rectangle,11,-2,1,0,0,4,7,"[3,220,225,91,201,33,145,146,141,168,201,73,269,79,123,44,28,245,187,150]",11,-2,1,0,0,0,33,33,96,1,,,,,,,,,,,,,,,,,,,,,,,
,,,,,,,,,,,,,,,,,,,,,,,,,,,,,,,,,,,,,,,,,,,5ee9e9d06580b8000940f89f,5fe1a6f32fbe51c368aa13ec,2020-12-22_08h58.00.575,FlowerSimilarity_Experiment,2020.1.2,Win32,60,5fe17d4a51f3a9c1a60f9869,,,,,,,,,,,,,,,,,,,5,FF,,4,0.61511,,,,,,,,,,,,,,,,,,,,,,,,,,,,,,,,,,66,-87,1,0,0,response3disk,6,197,-12,1,1,0,0,rectangle,-12,1,1,0,0,4,0,"[3,220,225,91,201,33,145,146,141,168,201,73,269,79,123,44,28,245,187,150]",-12,1,1,0,0,0,34,34,12,1,,,,,,,,,,,,,,,,,,,,,,,
,,,,,,,,,,,,,,,,,,,,,,,,,,,,,,,,,,,,,,,,,,,5ee9e9d06580b8000940f89f,5fe1a6f32fbe51c368aa13ec,2020-12-22_08h58.00.575,FlowerSimilarity_Experiment,2020.1.2,Win32,60,5fe17d4a51f3a9c1a60f9869,,,,,,,,,,,,,,,,,,,3,FF,,7,1.36529,,,,,,,,,,,,,,,,,,,,,,,,,,,,,,,,,,63,71,1,0,0,response1disk,1,198,34,6,1,0,0,rectangle,34,6,1,0,0,4,7,"[3,220,225,91,201,33,145,146,141,168,201,73,269,79,123,44,28,245,187,150]",34,6,1,0,0,0,35,35,125,1,,,,,,,,,,,,,,,,,,,,,,,
,,,,,,,,,,,,,,,,,,,,,,,,,,,,,,,,,,,,,,,,,,,5ee9e9d06580b8000940f89f,5fe1a6f32fbe51c368aa13ec,2020-12-22_08h58.00.575,FlowerSimilarity_Experiment,2020.1.2,Win32,60,5fe17d4a51f3a9c1a60f9869,,,,,,,,,,,,,,,,,,,1,FF,,7,0.93477,,,,,,,,,,,,,,,,,,,,,,,,,,,,,,,,,,34,76,1,0,0,response1disk,5,199,17,-7,1,0,0,rectangle,17,-7,1,0,0,4,3,"[3,220,225,91,201,33,145,146,141,168,201,73,269,79,123,44,28,245,187,150]",17,-7,1,0,0,0,36,36,82,1,,,,,,,,,,,,,,,,,,,,,,,
,,,,,,,,,,,,,,,,,,,,,,,,,,,,,,,,,,,,,,,,,,,5ee9e9d06580b8000940f89f,5fe1a6f32fbe51c368aa13ec,2020-12-22_08h58.00.575,FlowerSimilarity_Experiment,2020.1.2,Win32,60,5fe17d4a51f3a9c1a60f9869,,,,,,,,,,,,,,,,,,,7,FF,,7,0.57144,,,,,,,,,,,,,,,,,,,,,,,,,,,,,,,,,,40,62,1,0,0,response1disk,8,200,20,-6,1,0,0,rectangle,20,-6,1,0,0,4,7,"[3,220,225,91,201,33,145,146,141,168,201,73,269,79,123,44,28,245,187,150]",20,-6,1,0,0,0,37,37,97,1,,,,,,,,,,,,,,,,,,,,,,,
,,,,,,,,,,,,,,,,,,,,,,,,,,,,,,,,,,,,,,,,,,,5ee9e9d06580b8000940f89f,5fe1a6f32fbe51c368aa13ec,2020-12-22_08h58.00.575,FlowerSimilarity_Experiment,2020.1.2,Win32,60,5fe17d4a51f3a9c1a60f9869,,,,,,,,,,,,,,,,,,,5,FF,,6,0.53395,,,,,,,,,,,,,,,,,,,,,,,,,,,,,,,,,,73,40,1,0,0,response1disk,1,201,11,-2,1,0,0,rectangle,88,-40,1,0,0,5,5,"[3,220,225,91,201,33,145,146,141,168,201,73,269,79,123,44,28,245,187,150]",0,6,1,0,0,0,38,38,131,1,response3disk_3,rectangle,,,,,,,,,,,,,,,,,,,,,
,,,,,,,,,,,,,,,,,,,,,,,,,,,,,,,,,,,,,,,,,,,5ee9e9d06580b8000940f89f,5fe1a6f32fbe51c368aa13ec,2020-12-22_08h58.00.575,FlowerSimilarity_Experiment,2020.1.2,Win32,60,5fe17d4a51f3a9c1a60f9869,,,,,,,,,,,,,,,,,,,2,FF,,5,0.600475,,,,,,,,,,,,,,,,,,,,,,,,,,,,,,,,,,80,-36,1,0,0,response3disk,1,202,1,1,1,0,0,rectangle,1,1,1,0,0,5,2,"[3,220,225,91,201,33,145,146,141,168,201,73,269,79,123,44,28,245,187,150]",1,1,1,0,0,0,39,39,85,1,,,,,,,,,,,,,,,,,,,,,,,
,,,,,,,,,,,,,,,,,,,,,,,,,,,,,,,,,,,,,,,,,,,5ee9e9d06580b8000940f89f,5fe1a6f32fbe51c368aa13ec,2020-12-22_08h58.00.575,FlowerSimilarity_Experiment,2020.1.2,Win32,60,5fe17d4a51f3a9c1a60f9869,,,,,,,,,,,,,,,,,,,5,FF,,5,0.766775,,,,,,,,,,,,,,,,,,,,,,,,,,,,,,,,,,73,-44,1,0,0,response3disk,8,203,29,-15,1,0,0,rectangle,29,-15,1,0,0,5,5,"[3,220,225,91,201,33,145,146,141,168,201,73,269,79,123,44,28,245,187,150]",29,-15,1,0,0,0,40,40,16,1,,,,,,,,,,,,,,,,,,,,,,,
,,,,,,,,,,,,,,,,,,,,,,,,,,,,,,,,,,,,,,,,,,,5ee9e9d06580b8000940f89f,5fe1a6f32fbe51c368aa13ec,2020-12-22_08h58.00.575,FlowerSimilarity_Experiment,2020.1.2,Win32,60,5fe17d4a51f3a9c1a60f9869,,,,,,,,,,,,,,,,,,,8,FF,,0,0.770105,,,,,,,,,,,,,,,,,,,,,,,,,,,,,,,,,,-78,123,1,0,0,response7disk,8,204,8,9,1,0,0,rectangle,8,9,1,0,0,5,5,"[3,220,225,91,201,33,145,146,141,168,201,73,269,79,123,44,28,245,187,150]",8,9,1,0,0,0,41,41,48,1,,,,,,,,,,,,,,,,,,,,,,,
,,,,,,,,,,,,,,,,,,,,,,,,,,,,,,,,,,,,,,,,,,,5ee9e9d06580b8000940f89f,5fe1a6f32fbe51c368aa13ec,2020-12-22_08h58.00.575,FlowerSimilarity_Experiment,2020.1.2,Win32,60,5fe17d4a51f3a9c1a60f9869,,,,,,,,,,,,,,,,,,,9,FF,,4,2.135625,,,,,,,,,,,,,,,,,,,,,,,,,,,,,,,,,,25,-84,1,0,0,response3disk,6,205,-1,1,1,0,0,rectangle,-1,1,1,0,0,5,6,"[3,220,225,91,201,33,145,146,141,168,201,73,269,79,123,44,28,245,187,150]",-1,1,1,0,0,0,42,42,117,1,,,,,,,,,,,,,,,,,,,,,,,
