key_resp.keys,key_resp.rt,key_resp_16.keys,key_resp_16.rt,key_resp_2.keys,key_resp_2.rt,X Scale,ratio_pxpermm,screen_size_x,screen_size_y,testsize,key_resp_3.keys,key_resp_3.rt,key_resp_4.keys,key_resp_4.rt,line_size,key_resp_5.keys,key_resp_5.rt,key_resp_6.keys,key_resp_6.rt,key_resp_8.keys,key_resp_8.rt,key_resp_7.keys,key_resp_7.rt,key_resp_12.keys,key_resp_12.rt,key_resp_11.keys,key_resp_11.rt,key_resp_18.keys,key_resp_18.rt,key_resp_21.keys,key_resp_21.rt,key_resp_13.keys,key_resp_13.rt,key_resp_19.keys,key_resp_19.rt,ballposx,viewer_distance,trials.thisRepN,trials.thisTrialN,trials.thisN,trials.thisIndex,trials.ran,participant,session,date,expName,psychopyVersion,OS,frameRate,study_id,viewerdistancecm,DVA_to_distance,radius_F,radius_P,r_F,R_P,key_resp_20.keys,key_resp_20.rt,key_resp_14.keys,key_resp_14.rt,key_resp_15.keys,key_resp_15.rt,key_resp_17.keys,key_resp_17.rt,key_resp_9.keys,key_resp_9.rt,key_resp_10.keys,key_resp_10.rt,Flower1,Ecc,Flower_2,similarity,response_time,mouse_5.x,mouse_5.y,mouse_5.leftButton,mouse_5.midButton,mouse_5.rightButton,mouse_5.clicked_name,mouse_10.x,mouse_10.y,mouse_10.leftButton,mouse_10.midButton,mouse_10.rightButton,mouse_10.clicked_name,mouse_7.x,mouse_7.y,mouse_7.leftButton,mouse_7.midButton,mouse_7.rightButton,catchnumberprac,mouse_6.x,mouse_6.y,mouse_6.leftButton,mouse_6.midButton,mouse_6.rightButton,duringprac.thisRepN,duringprac.thisTrialN,duringprac.thisN,duringprac.thisIndex,duringprac.ran,mouse_7.clicked_name,catchprac,mouse_6.clicked_name,key_resp_22.keys,key_resp_22.rt,mouse.x,mouse.y,mouse.leftButton,mouse.midButton,mouse.rightButton,mouse.clicked_name,Flower2,trialnumber,mouse_2.x,mouse_2.y,mouse_2.leftButton,mouse_2.midButton,mouse_2.rightButton,mouse_2.clicked_name,mouse_3.x,mouse_3.y,mouse_3.leftButton,mouse_3.midButton,mouse_3.rightButton,catchresponse,catchnumber,catchtrialorder,mouse_11.x,mouse_11.y,mouse_11.leftButton,mouse_11.midButton,mouse_11.rightButton,trials_2.thisRepN,trials_2.thisTrialN,trials_2.thisN,trials_2.thisIndex,trials_2.ran,mouse_3.clicked_name,mouse_11.clicked_name,trials_3.thisRepN,trials_3.thisTrialN,trials_3.thisN,trials_3.thisIndex,trials_3.ran,answer1,rt1,answer2,rt2,answer3,rt3,answer4,rt4,answer5,rt5,answer6,rt6,answer8,rt8,answer7,rt7
space,5.418,space,10.199,space,4.477,44,4.4,310.4545455,174.5454545,1366,space,19.063,space,19.441,88,space,7.24,space,9.832,space,1.453,space,3.865,space,5.883,space,10.331,space,4.987,space,11.927,space,2.825,return,12.681,-432.339,926.5324647,0,0,0,0,1,5f6ad11391339f1b10bbea1f,5fe192c09bf07dbca1605368,2020-12-22_00h32.43.292,FlowerSimilarity_Experiment,2020.1.2,Win32,60,5fe17d4a51f3a9c1a60f9869,,,,,,,,,,,,,,,,,,,,,,,,,,,,,,,,,,,,,,,,,,,,,,,,,,,,,,,,,,,,,,,,,,,,,,,,,,,,,,,,,,,,,,,,,,,,,,,,,,,,,,,,,,,,,,,
,,,,,,,,,,,,,,,,,,,,,,,,,,,,,,,,,,return,11.34,-264.321,767.4766473,1,0,1,0,1,5f6ad11391339f1b10bbea1f,5fe192c09bf07dbca1605368,2020-12-22_00h32.43.292,FlowerSimilarity_Experiment,2020.1.2,Win32,60,5fe17d4a51f3a9c1a60f9869,,,,,,,,,,,,,,,,,,,,,,,,,,,,,,,,,,,,,,,,,,,,,,,,,,,,,,,,,,,,,,,,,,,,,,,,,,,,,,,,,,,,,,,,,,,,,,,,,,,,,,,,,,,,,,,
,,,,,,,,,,,,,,,,,,,,,,,,,,,,,,,,,,return,10.889,-284.811,786.8736982,2,0,2,0,1,5f6ad11391339f1b10bbea1f,5fe192c09bf07dbca1605368,2020-12-22_00h32.43.292,FlowerSimilarity_Experiment,2020.1.2,Win32,60,5fe17d4a51f3a9c1a60f9869,,,,,,,,,,,,,,,,,,,,,,,,,,,,,,,,,,,,,,,,,,,,,,,,,,,,,,,,,,,,,,,,,,,,,,,,,,,,,,,,,,,,,,,,,,,,,,,,,,,,,,,,,,,,,,,
,,,,,,,,,,,,,,,,,,,,,,,,,,,,,,,,,,return,11.85,-270.468,773.2957626,3,0,3,0,1,5f6ad11391339f1b10bbea1f,5fe192c09bf07dbca1605368,2020-12-22_00h32.43.292,FlowerSimilarity_Experiment,2020.1.2,Win32,60,5fe17d4a51f3a9c1a60f9869,,,,,,,,,,,,,,,,,,,,,,,,,,,,,,,,,,,,,,,,,,,,,,,,,,,,,,,,,,,,,,,,,,,,,,,,,,,,,,,,,,,,,,,,,,,,,,,,,,,,,,,,,,,,,,,
,,,,,,,,,,,,,,,,,,,,,,,,,,,,,,,,,,return,10.468,-305.301,806.2707491,4,0,4,0,1,5f6ad11391339f1b10bbea1f,5fe192c09bf07dbca1605368,2020-12-22_00h32.43.292,FlowerSimilarity_Experiment,2020.1.2,Win32,60,5fe17d4a51f3a9c1a60f9869,,,,,,,,,,,,,,,,,,,,,,,,,,,,,,,,,,,,,,,,,,,,,,,,,,,,,,,,,,,,,,,,,,,,,,,,,,,,,,,,,,,,,,,,,,,,,,,,,,,,,,,,,,,,,,,
,,,,,,,,,,,,,,,,,,,,,,,,,,,,,,,,,,,,,,,,,,,5f6ad11391339f1b10bbea1f,5fe192c09bf07dbca1605368,2020-12-22_00h32.43.292,FlowerSimilarity_Experiment,2020.1.2,Win32,60,5fe17d4a51f3a9c1a60f9869,81,14.13859754,93.31474373,622.0982916,62.20982916,279.9442312,space,4.453,space,3.88,space,5.241,space,2.501,space,1.404,space,3.982,8,PF,8,7,34.536,34,100,1,0,0,response1disk_5,4,6,1,0,0,rectangle_8,4,6,1,0,0,3,4,6,1,0,0,0,0,0,1,1,,,,,,,,,,,,,,,,,,,,,,,,,,,,,,,,,,,,,,,,,,,,,,,,,,,,,,,,,,,,
,,,,,,,,,,,,,,,,,,,,,,,,,,,,,,,,,,,,,,,,,,,5f6ad11391339f1b10bbea1f,5fe192c09bf07dbca1605368,2020-12-22_00h32.43.292,FlowerSimilarity_Experiment,2020.1.2,Win32,60,5fe17d4a51f3a9c1a60f9869,,,,,,,,,,,,,,,,,,,2,PF,8,0,5.993,-45,67,1,0,0,response7disk_5,2,-2,1,0,0,rectangle_8,2,-2,1,0,0,3,2,-2,1,0,0,0,1,1,6,1,,,,,,,,,,,,,,,,,,,,,,,,,,,,,,,,,,,,,,,,,,,,,,,,,,,,,,,,,,,,
,,,,,,,,,,,,,,,,,,,,,,,,,,,,,,,,,,,,,,,,,,,5f6ad11391339f1b10bbea1f,5fe192c09bf07dbca1605368,2020-12-22_00h32.43.292,FlowerSimilarity_Experiment,2020.1.2,Win32,60,5fe17d4a51f3a9c1a60f9869,,,,,,,,,,,,,,,,,,,3,FF,1,0,5.113,-41,79,1,0,0,response7disk_5,0,-4,1,0,0,rectangle_8,-44,-92,1,0,0,3,3,3,1,0,0,0,2,2,0,1,response5disk_7,3,rectangle_4,,,,,,,,,,,,,,,,,,,,,,,,,,,,,,,,,,,,,,,,,,,,,,,,,,,,,,,,,
,,,,,,,,,,,,,,,,,,,,,,,,,,,,,,,,,,,,,,,,,,,5f6ad11391339f1b10bbea1f,5fe192c09bf07dbca1605368,2020-12-22_00h32.43.292,FlowerSimilarity_Experiment,2020.1.2,Win32,60,5fe17d4a51f3a9c1a60f9869,,,,,,,,,,,,,,,,,,,6,FF,3,7,2.256,41,108,1,0,0,response1disk_5,11,-8,1,0,0,rectangle_8,11,-8,1,0,0,3,11,-8,1,0,0,0,3,3,5,1,,,,,,,,,,,,,,,,,,,,,,,,,,,,,,,,,,,,,,,,,,,,,,,,,,,,,,,,,,,,
,,,,,,,,,,,,,,,,,,,,,,,,,,,,,,,,,,,,,,,,,,,5f6ad11391339f1b10bbea1f,5fe192c09bf07dbca1605368,2020-12-22_00h32.43.292,FlowerSimilarity_Experiment,2020.1.2,Win32,60,5fe17d4a51f3a9c1a60f9869,,,,,,,,,,,,,,,,,,,4,PF,9,0,1.955,-24,62,1,0,0,response7disk_5,10,5,1,0,0,rectangle_8,10,5,1,0,0,3,10,5,1,0,0,0,4,4,2,1,,,,,,,,,,,,,,,,,,,,,,,,,,,,,,,,,,,,,,,,,,,,,,,,,,,,,,,,,,,,
,,,,,,,,,,,,,,,,,,,,,,,,,,,,,,,,,,,,,,,,,,,5f6ad11391339f1b10bbea1f,5fe192c09bf07dbca1605368,2020-12-22_00h32.43.292,FlowerSimilarity_Experiment,2020.1.2,Win32,60,5fe17d4a51f3a9c1a60f9869,,,,,,,,,,,,,,,,,,,2,PF,8,2,2.731,-95,-49,1,0,0,response5disk_5,-7,-2,1,0,0,rectangle_8,-50,-91,1,0,0,3,-9,6,1,0,0,0,5,5,4,1,response5disk_7,3,rectangle_4,,,,,,,,,,,,,,,,,,,,,,,,,,,,,,,,,,,,,,,,,,,,,,,,,,,,,,,,,
,,,,,,,,,,,,,,,,,,,,,,,,,,,,,,,,,,,,,,,,,,,5f6ad11391339f1b10bbea1f,5fe192c09bf07dbca1605368,2020-12-22_00h32.43.292,FlowerSimilarity_Experiment,2020.1.2,Win32,60,5fe17d4a51f3a9c1a60f9869,,,,,,,,,,,,,,,,,,,2,FF,6,4,2.481,33,-82,1,0,0,response3disk_5,2,3,1,0,0,rectangle_8,2,3,1,0,0,3,2,3,1,0,0,0,6,6,3,1,,,,,,,,,,,,,,,,,,,,,,,,,,,,,,,,,,,,,,,,,,,,,,,,,,,,,,,,,,,,
,,,,,,,,,,,,,,,,,,,,,,,,,,,,,,,,,,,,,,,,,,,5f6ad11391339f1b10bbea1f,5fe192c09bf07dbca1605368,2020-12-22_00h32.43.292,FlowerSimilarity_Experiment,2020.1.2,Win32,60,5fe17d4a51f3a9c1a60f9869,,,,,,,,,,,,,,,,,,,4,PF,,0,1.63,,,,,,,,,,,,,,,,,,,,,,,,,,,,,,,,space,5.353,-46,73,1,0,0,response7disk,2,1,16,-6,1,0,0,rectangle,16,-6,1,0,0,,0,"[31,126,263,13,25,212,64,44,124,64,72,3,81,317,283,28,107,13,93,68]",16,-6,1,0,0,0,0,0,108,1,,,,,,,,,,,,,,,,,,,,,,,
,,,,,,,,,,,,,,,,,,,,,,,,,,,,,,,,,,,,,,,,,,,5f6ad11391339f1b10bbea1f,5fe192c09bf07dbca1605368,2020-12-22_00h32.43.292,FlowerSimilarity_Experiment,2020.1.2,Win32,60,5fe17d4a51f3a9c1a60f9869,,,,,,,,,,,,,,,,,,,4,PF,,0,1.004,,,,,,,,,,,,,,,,,,,,,,,,,,,,,,,,,,-36,73,1,0,0,response7disk,1,2,0,-9,1,0,0,rectangle,0,-9,1,0,0,,3,"[31,126,263,13,25,212,64,44,124,64,72,3,81,317,283,28,107,13,93,68]",0,-9,1,0,0,0,1,1,115,1,,,,,,,,,,,,,,,,,,,,,,,
,,,,,,,,,,,,,,,,,,,,,,,,,,,,,,,,,,,,,,,,,,,5f6ad11391339f1b10bbea1f,5fe192c09bf07dbca1605368,2020-12-22_00h32.43.292,FlowerSimilarity_Experiment,2020.1.2,Win32,60,5fe17d4a51f3a9c1a60f9869,,,,,,,,,,,,,,,,,,,3,PF,,0,1.13,,,,,,,,,,,,,,,,,,,,,,,,,,,,,,,,,,-35,80,1,0,0,response7disk,9,3,-12,-3,1,0,0,rectangle,41,95,1,0,0,7,7,"[31,126,263,13,25,212,64,44,124,64,72,3,81,317,283,28,107,13,93,68]",-10,5,1,0,0,0,2,2,79,1,response1disk_3,rectangle,,,,,,,,,,,,,,,,,,,,,
,,,,,,,,,,,,,,,,,,,,,,,,,,,,,,,,,,,,,,,,,,,5f6ad11391339f1b10bbea1f,5fe192c09bf07dbca1605368,2020-12-22_00h32.43.292,FlowerSimilarity_Experiment,2020.1.2,Win32,60,5fe17d4a51f3a9c1a60f9869,,,,,,,,,,,,,,,,,,,9,FF,,3,2.23,,,,,,,,,,,,,,,,,,,,,,,,,,,,,,,,,,-40,-80,1,0,0,response5disk,1,4,-3,13,1,0,0,rectangle,-3,13,1,0,0,7,6,"[31,126,263,13,25,212,64,44,124,64,72,3,81,317,283,28,107,13,93,68]",-3,13,1,0,0,0,3,3,111,1,,,,,,,,,,,,,,,,,,,,,,,
,,,,,,,,,,,,,,,,,,,,,,,,,,,,,,,,,,,,,,,,,,,5f6ad11391339f1b10bbea1f,5fe192c09bf07dbca1605368,2020-12-22_00h32.43.292,FlowerSimilarity_Experiment,2020.1.2,Win32,60,5fe17d4a51f3a9c1a60f9869,,,,,,,,,,,,,,,,,,,8,FF,,7,1.531,,,,,,,,,,,,,,,,,,,,,,,,,,,,,,,,,,55,88,1,0,0,response1disk,3,5,-9,1,1,0,0,rectangle,-9,1,1,0,0,7,1,"[31,126,263,13,25,212,64,44,124,64,72,3,81,317,283,28,107,13,93,68]",-9,1,1,0,0,0,4,4,154,1,,,,,,,,,,,,,,,,,,,,,,,
,,,,,,,,,,,,,,,,,,,,,,,,,,,,,,,,,,,,,,,,,,,5f6ad11391339f1b10bbea1f,5fe192c09bf07dbca1605368,2020-12-22_00h32.43.292,FlowerSimilarity_Experiment,2020.1.2,Win32,60,5fe17d4a51f3a9c1a60f9869,,,,,,,,,,,,,,,,,,,3,FF,,7,1.505,,,,,,,,,,,,,,,,,,,,,,,,,,,,,,,,,,47,79,1,0,0,response1disk,5,6,-15,-1,1,0,0,rectangle,-15,-1,1,0,0,7,3,"[31,126,263,13,25,212,64,44,124,64,72,3,81,317,283,28,107,13,93,68]",-15,-1,1,0,0,0,5,5,101,1,,,,,,,,,,,,,,,,,,,,,,,
,,,,,,,,,,,,,,,,,,,,,,,,,,,,,,,,,,,,,,,,,,,5f6ad11391339f1b10bbea1f,5fe192c09bf07dbca1605368,2020-12-22_00h32.43.292,FlowerSimilarity_Experiment,2020.1.2,Win32,60,5fe17d4a51f3a9c1a60f9869,,,,,,,,,,,,,,,,,,,4,PF,,4,1.529,,,,,,,,,,,,,,,,,,,,,,,,,,,,,,,,,,72,-87,1,0,0,response3disk,7,7,19,-2,1,0,0,rectangle,19,-2,1,0,0,7,7,"[31,126,263,13,25,212,64,44,124,64,72,3,81,317,283,28,107,13,93,68]",19,-2,1,0,0,0,6,6,38,1,,,,,,,,,,,,,,,,,,,,,,,
,,,,,,,,,,,,,,,,,,,,,,,,,,,,,,,,,,,,,,,,,,,5f6ad11391339f1b10bbea1f,5fe192c09bf07dbca1605368,2020-12-22_00h32.43.292,FlowerSimilarity_Experiment,2020.1.2,Win32,60,5fe17d4a51f3a9c1a60f9869,,,,,,,,,,,,,,,,,,,5,FF,,4,1.354,,,,,,,,,,,,,,,,,,,,,,,,,,,,,,,,,,25,-66,1,0,0,response3disk,9,8,0,-1,1,0,0,rectangle,0,-1,1,0,0,7,6,"[31,126,263,13,25,212,64,44,124,64,72,3,81,317,283,28,107,13,93,68]",0,-1,1,0,0,0,7,7,61,1,,,,,,,,,,,,,,,,,,,,,,,
,,,,,,,,,,,,,,,,,,,,,,,,,,,,,,,,,,,,,,,,,,,5f6ad11391339f1b10bbea1f,5fe192c09bf07dbca1605368,2020-12-22_00h32.43.292,FlowerSimilarity_Experiment,2020.1.2,Win32,60,5fe17d4a51f3a9c1a60f9869,,,,,,,,,,,,,,,,,,,8,FF,,3,0.752,,,,,,,,,,,,,,,,,,,,,,,,,,,,,,,,,,-36,-66,1,0,0,response5disk,2,9,11,14,1,0,0,rectangle,11,14,1,0,0,7,5,"[31,126,263,13,25,212,64,44,124,64,72,3,81,317,283,28,107,13,93,68]",11,14,1,0,0,0,8,8,22,1,,,,,,,,,,,,,,,,,,,,,,,
,,,,,,,,,,,,,,,,,,,,,,,,,,,,,,,,,,,,,,,,,,,5f6ad11391339f1b10bbea1f,5fe192c09bf07dbca1605368,2020-12-22_00h32.43.292,FlowerSimilarity_Experiment,2020.1.2,Win32,60,5fe17d4a51f3a9c1a60f9869,,,,,,,,,,,,,,,,,,,1,PF,,0,1.355,,,,,,,,,,,,,,,,,,,,,,,,,,,,,,,,,,-48,81,1,0,0,response7disk,1,10,-1,-4,1,0,0,rectangle,-1,-4,1,0,0,7,1,"[31,126,263,13,25,212,64,44,124,64,72,3,81,317,283,28,107,13,93,68]",-1,-4,1,0,0,0,9,9,76,1,,,,,,,,,,,,,,,,,,,,,,,
,,,,,,,,,,,,,,,,,,,,,,,,,,,,,,,,,,,,,,,,,,,5f6ad11391339f1b10bbea1f,5fe192c09bf07dbca1605368,2020-12-22_00h32.43.292,FlowerSimilarity_Experiment,2020.1.2,Win32,60,5fe17d4a51f3a9c1a60f9869,,,,,,,,,,,,,,,,,,,9,FF,,0,1.253,,,,,,,,,,,,,,,,,,,,,,,,,,,,,,,,,,-30,77,1,0,0,response7disk,2,11,-5,3,1,0,0,rectangle,-5,3,1,0,0,7,7,"[31,126,263,13,25,212,64,44,124,64,72,3,81,317,283,28,107,13,93,68]",-5,3,1,0,0,0,10,10,11,1,,,,,,,,,,,,,,,,,,,,,,,
,,,,,,,,,,,,,,,,,,,,,,,,,,,,,,,,,,,,,,,,,,,5f6ad11391339f1b10bbea1f,5fe192c09bf07dbca1605368,2020-12-22_00h32.43.292,FlowerSimilarity_Experiment,2020.1.2,Win32,60,5fe17d4a51f3a9c1a60f9869,,,,,,,,,,,,,,,,,,,5,PF,,6,2.306,,,,,,,,,,,,,,,,,,,,,,,,,,,,,,,,,,74,27,1,0,0,response1disk,6,12,15,-5,1,0,0,rectangle,15,-5,1,0,0,7,0,"[31,126,263,13,25,212,64,44,124,64,72,3,81,317,283,28,107,13,93,68]",15,-5,1,0,0,0,11,11,103,1,,,,,,,,,,,,,,,,,,,,,,,
,,,,,,,,,,,,,,,,,,,,,,,,,,,,,,,,,,,,,,,,,,,5f6ad11391339f1b10bbea1f,5fe192c09bf07dbca1605368,2020-12-22_00h32.43.292,FlowerSimilarity_Experiment,2020.1.2,Win32,60,5fe17d4a51f3a9c1a60f9869,,,,,,,,,,,,,,,,,,,2,FF,,6,1.13,,,,,,,,,,,,,,,,,,,,,,,,,,,,,,,,,,81,41,1,0,0,response1disk,6,13,-4,-8,1,0,0,rectangle,41,75,1,0,0,7,7,"[31,126,263,13,25,212,64,44,124,64,72,3,81,317,283,28,107,13,93,68]",10,5,1,0,0,0,12,12,40,1,response1disk_3,rectangle,,,,,,,,,,,,,,,,,,,,,
,,,,,,,,,,,,,,,,,,,,,,,,,,,,,,,,,,,,,,,,,,,5f6ad11391339f1b10bbea1f,5fe192c09bf07dbca1605368,2020-12-22_00h32.43.292,FlowerSimilarity_Experiment,2020.1.2,Win32,60,5fe17d4a51f3a9c1a60f9869,,,,,,,,,,,,,,,,,,,2,PF,,4,1.503,,,,,,,,,,,,,,,,,,,,,,,,,,,,,,,,,,63,-79,1,0,0,response3disk,3,14,17,-5,1,0,0,rectangle,17,-5,1,0,0,7,7,"[31,126,263,13,25,212,64,44,124,64,72,3,81,317,283,28,107,13,93,68]",17,-5,1,0,0,0,13,13,69,1,,,,,,,,,,,,,,,,,,,,,,,
,,,,,,,,,,,,,,,,,,,,,,,,,,,,,,,,,,,,,,,,,,,5f6ad11391339f1b10bbea1f,5fe192c09bf07dbca1605368,2020-12-22_00h32.43.292,FlowerSimilarity_Experiment,2020.1.2,Win32,60,5fe17d4a51f3a9c1a60f9869,,,,,,,,,,,,,,,,,,,6,PF,,0,0.952,,,,,,,,,,,,,,,,,,,,,,,,,,,,,,,,,,-40,88,1,0,0,response7disk,1,15,2,-8,1,0,0,rectangle,2,-8,1,0,0,7,0,"[31,126,263,13,25,212,64,44,124,64,72,3,81,317,283,28,107,13,93,68]",2,-8,1,0,0,0,14,14,46,1,,,,,,,,,,,,,,,,,,,,,,,
,,,,,,,,,,,,,,,,,,,,,,,,,,,,,,,,,,,,,,,,,,,5f6ad11391339f1b10bbea1f,5fe192c09bf07dbca1605368,2020-12-22_00h32.43.292,FlowerSimilarity_Experiment,2020.1.2,Win32,60,5fe17d4a51f3a9c1a60f9869,,,,,,,,,,,,,,,,,,,3,FF,,0,0.878,,,,,,,,,,,,,,,,,,,,,,,,,,,,,,,,,,-48,69,1,0,0,response7disk,3,16,6,-4,1,0,0,rectangle,6,-4,1,0,0,7,0,"[31,126,263,13,25,212,64,44,124,64,72,3,81,317,283,28,107,13,93,68]",6,-4,1,0,0,0,15,15,68,1,,,,,,,,,,,,,,,,,,,,,,,
,,,,,,,,,,,,,,,,,,,,,,,,,,,,,,,,,,,,,,,,,,,5f6ad11391339f1b10bbea1f,5fe192c09bf07dbca1605368,2020-12-22_00h32.43.292,FlowerSimilarity_Experiment,2020.1.2,Win32,60,5fe17d4a51f3a9c1a60f9869,,,,,,,,,,,,,,,,,,,3,FF,,4,1.503,,,,,,,,,,,,,,,,,,,,,,,,,,,,,,,,,,30,-78,1,0,0,response3disk,9,17,15,-3,1,0,0,rectangle,15,-3,1,0,0,7,4,"[31,126,263,13,25,212,64,44,124,64,72,3,81,317,283,28,107,13,93,68]",15,-3,1,0,0,0,16,16,143,1,,,,,,,,,,,,,,,,,,,,,,,
,,,,,,,,,,,,,,,,,,,,,,,,,,,,,,,,,,,,,,,,,,,5f6ad11391339f1b10bbea1f,5fe192c09bf07dbca1605368,2020-12-22_00h32.43.292,FlowerSimilarity_Experiment,2020.1.2,Win32,60,5fe17d4a51f3a9c1a60f9869,,,,,,,,,,,,,,,,,,,1,PF,,4,0.927,,,,,,,,,,,,,,,,,,,,,,,,,,,,,,,,,,45,-68,1,0,0,response3disk,3,18,14,2,1,0,0,rectangle,14,2,1,0,0,7,0,"[31,126,263,13,25,212,64,44,124,64,72,3,81,317,283,28,107,13,93,68]",14,2,1,0,0,0,17,17,1,1,,,,,,,,,,,,,,,,,,,,,,,
,,,,,,,,,,,,,,,,,,,,,,,,,,,,,,,,,,,,,,,,,,,5f6ad11391339f1b10bbea1f,5fe192c09bf07dbca1605368,2020-12-22_00h32.43.292,FlowerSimilarity_Experiment,2020.1.2,Win32,60,5fe17d4a51f3a9c1a60f9869,,,,,,,,,,,,,,,,,,,1,PF,,5,1.228,,,,,,,,,,,,,,,,,,,,,,,,,,,,,,,,,,78,-40,1,0,0,response3disk,6,19,-2,5,1,0,0,rectangle,-2,5,1,0,0,7,1,"[31,126,263,13,25,212,64,44,124,64,72,3,81,317,283,28,107,13,93,68]",-2,5,1,0,0,0,18,18,144,1,,,,,,,,,,,,,,,,,,,,,,,
,,,,,,,,,,,,,,,,,,,,,,,,,,,,,,,,,,,,,,,,,,,5f6ad11391339f1b10bbea1f,5fe192c09bf07dbca1605368,2020-12-22_00h32.43.292,FlowerSimilarity_Experiment,2020.1.2,Win32,60,5fe17d4a51f3a9c1a60f9869,,,,,,,,,,,,,,,,,,,7,PF,,4,1.655,,,,,,,,,,,,,,,,,,,,,,,,,,,,,,,,,,37,-62,1,0,0,response3disk,5,20,3,-6,1,0,0,rectangle,3,-6,1,0,0,7,7,"[31,126,263,13,25,212,64,44,124,64,72,3,81,317,283,28,107,13,93,68]",3,-6,1,0,0,0,19,19,92,1,,,,,,,,,,,,,,,,,,,,,,,
,,,,,,,,,,,,,,,,,,,,,,,,,,,,,,,,,,,,,,,,,,,5f6ad11391339f1b10bbea1f,5fe192c09bf07dbca1605368,2020-12-22_00h32.43.292,FlowerSimilarity_Experiment,2020.1.2,Win32,60,5fe17d4a51f3a9c1a60f9869,,,,,,,,,,,,,,,,,,,5,PF,,5,1.18,,,,,,,,,,,,,,,,,,,,,,,,,,,,,,,,,,77,-44,1,0,0,response3disk,8,21,7,-1,1,0,0,rectangle,7,-1,1,0,0,7,7,"[31,126,263,13,25,212,64,44,124,64,72,3,81,317,283,28,107,13,93,68]",7,-1,1,0,0,0,20,20,149,1,,,,,,,,,,,,,,,,,,,,,,,
,,,,,,,,,,,,,,,,,,,,,,,,,,,,,,,,,,,,,,,,,,,5f6ad11391339f1b10bbea1f,5fe192c09bf07dbca1605368,2020-12-22_00h32.43.292,FlowerSimilarity_Experiment,2020.1.2,Win32,60,5fe17d4a51f3a9c1a60f9869,,,,,,,,,,,,,,,,,,,1,FF,,7,1.679,,,,,,,,,,,,,,,,,,,,,,,,,,,,,,,,,,57,76,1,0,0,response1disk,2,22,11,-8,1,0,0,rectangle,11,-8,1,0,0,7,1,"[31,126,263,13,25,212,64,44,124,64,72,3,81,317,283,28,107,13,93,68]",11,-8,1,0,0,0,21,21,2,1,,,,,,,,,,,,,,,,,,,,,,,
,,,,,,,,,,,,,,,,,,,,,,,,,,,,,,,,,,,,,,,,,,,5f6ad11391339f1b10bbea1f,5fe192c09bf07dbca1605368,2020-12-22_00h32.43.292,FlowerSimilarity_Experiment,2020.1.2,Win32,60,5fe17d4a51f3a9c1a60f9869,,,,,,,,,,,,,,,,,,,8,FF,,7,0.977,,,,,,,,,,,,,,,,,,,,,,,,,,,,,,,,,,57,89,1,0,0,response1disk,1,23,6,1,1,0,0,rectangle,6,1,1,0,0,7,4,"[31,126,263,13,25,212,64,44,124,64,72,3,81,317,283,28,107,13,93,68]",6,1,1,0,0,0,22,22,20,1,,,,,,,,,,,,,,,,,,,,,,,
,,,,,,,,,,,,,,,,,,,,,,,,,,,,,,,,,,,,,,,,,,,5f6ad11391339f1b10bbea1f,5fe192c09bf07dbca1605368,2020-12-22_00h32.43.292,FlowerSimilarity_Experiment,2020.1.2,Win32,60,5fe17d4a51f3a9c1a60f9869,,,,,,,,,,,,,,,,,,,3,FF,,7,1.228,,,,,,,,,,,,,,,,,,,,,,,,,,,,,,,,,,52,92,1,0,0,response1disk,4,24,12,-13,1,0,0,rectangle,12,-13,1,0,0,7,1,"[31,126,263,13,25,212,64,44,124,64,72,3,81,317,283,28,107,13,93,68]",12,-13,1,0,0,0,23,23,110,1,,,,,,,,,,,,,,,,,,,,,,,
,,,,,,,,,,,,,,,,,,,,,,,,,,,,,,,,,,,,,,,,,,,5f6ad11391339f1b10bbea1f,5fe192c09bf07dbca1605368,2020-12-22_00h32.43.292,FlowerSimilarity_Experiment,2020.1.2,Win32,60,5fe17d4a51f3a9c1a60f9869,,,,,,,,,,,,,,,,,,,7,PF,,0,1.529,,,,,,,,,,,,,,,,,,,,,,,,,,,,,,,,,,-34,85,1,0,0,response7disk,2,25,-8,-4,1,0,0,rectangle,-80,36,1,0,0,1,1,"[31,126,263,13,25,212,64,44,124,64,72,3,81,317,283,28,107,13,93,68]",12,-2,1,0,0,0,24,24,32,1,response7disk_3,rectangle,,,,,,,,,,,,,,,,,,,,,
,,,,,,,,,,,,,,,,,,,,,,,,,,,,,,,,,,,,,,,,,,,5f6ad11391339f1b10bbea1f,5fe192c09bf07dbca1605368,2020-12-22_00h32.43.292,FlowerSimilarity_Experiment,2020.1.2,Win32,60,5fe17d4a51f3a9c1a60f9869,,,,,,,,,,,,,,,,,,,7,FF,,7,0.927,,,,,,,,,,,,,,,,,,,,,,,,,,,,,,,,,,52,80,1,0,0,response1disk,9,26,10,-5,1,0,0,rectangle,10,-5,1,0,0,1,2,"[31,126,263,13,25,212,64,44,124,64,72,3,81,317,283,28,107,13,93,68]",10,-5,1,0,0,0,25,25,155,1,,,,,,,,,,,,,,,,,,,,,,,
,,,,,,,,,,,,,,,,,,,,,,,,,,,,,,,,,,,,,,,,,,,5f6ad11391339f1b10bbea1f,5fe192c09bf07dbca1605368,2020-12-22_00h32.43.292,FlowerSimilarity_Experiment,2020.1.2,Win32,60,5fe17d4a51f3a9c1a60f9869,,,,,,,,,,,,,,,,,,,5,FF,,4,1.954,,,,,,,,,,,,,,,,,,,,,,,,,,,,,,,,,,46,-100,1,0,0,response3disk,7,27,11,0,1,0,0,rectangle,11,0,1,0,0,1,1,"[31,126,263,13,25,212,64,44,124,64,72,3,81,317,283,28,107,13,93,68]",11,0,1,0,0,0,26,26,7,1,,,,,,,,,,,,,,,,,,,,,,,
,,,,,,,,,,,,,,,,,,,,,,,,,,,,,,,,,,,,,,,,,,,5f6ad11391339f1b10bbea1f,5fe192c09bf07dbca1605368,2020-12-22_00h32.43.292,FlowerSimilarity_Experiment,2020.1.2,Win32,60,5fe17d4a51f3a9c1a60f9869,,,,,,,,,,,,,,,,,,,2,PF,,7,0.802,,,,,,,,,,,,,,,,,,,,,,,,,,,,,,,,,,36,76,1,0,0,response1disk,6,28,0,-10,1,0,0,rectangle,-64,-51,1,0,0,1,2,"[31,126,263,13,25,212,64,44,124,64,72,3,81,317,283,28,107,13,93,68]",-1,8,1,0,0,0,27,27,113,1,response5disk_3,rectangle,,,,,,,,,,,,,,,,,,,,,
,,,,,,,,,,,,,,,,,,,,,,,,,,,,,,,,,,,,,,,,,,,5f6ad11391339f1b10bbea1f,5fe192c09bf07dbca1605368,2020-12-22_00h32.43.292,FlowerSimilarity_Experiment,2020.1.2,Win32,60,5fe17d4a51f3a9c1a60f9869,,,,,,,,,,,,,,,,,,,7,FF,,0,1.327,,,,,,,,,,,,,,,,,,,,,,,,,,,,,,,,,,-37,76,1,0,0,response7disk,3,29,11,-15,1,0,0,rectangle,11,-15,1,0,0,1,2,"[31,126,263,13,25,212,64,44,124,64,72,3,81,317,283,28,107,13,93,68]",11,-15,1,0,0,0,28,28,73,1,,,,,,,,,,,,,,,,,,,,,,,
,,,,,,,,,,,,,,,,,,,,,,,,,,,,,,,,,,,,,,,,,,,5f6ad11391339f1b10bbea1f,5fe192c09bf07dbca1605368,2020-12-22_00h32.43.292,FlowerSimilarity_Experiment,2020.1.2,Win32,60,5fe17d4a51f3a9c1a60f9869,,,,,,,,,,,,,,,,,,,5,FF,,6,1.103,,,,,,,,,,,,,,,,,,,,,,,,,,,,,,,,,,101,21,1,0,0,response1disk,6,30,-3,-11,1,0,0,rectangle,-3,-11,1,0,0,1,7,"[31,126,263,13,25,212,64,44,124,64,72,3,81,317,283,28,107,13,93,68]",-3,-11,1,0,0,0,29,29,12,1,,,,,,,,,,,,,,,,,,,,,,,
,,,,,,,,,,,,,,,,,,,,,,,,,,,,,,,,,,,,,,,,,,,5f6ad11391339f1b10bbea1f,5fe192c09bf07dbca1605368,2020-12-22_00h32.43.292,FlowerSimilarity_Experiment,2020.1.2,Win32,60,5fe17d4a51f3a9c1a60f9869,,,,,,,,,,,,,,,,,,,5,PF,,6,0.777,,,,,,,,,,,,,,,,,,,,,,,,,,,,,,,,,,71,30,1,0,0,response1disk,9,31,-12,3,1,0,0,rectangle,45,78,1,0,0,7,7,"[31,126,263,13,25,212,64,44,124,64,72,3,81,317,283,28,107,13,93,68]",15,0,1,0,0,0,30,30,136,1,response1disk_3,rectangle,,,,,,,,,,,,,,,,,,,,,
,,,,,,,,,,,,,,,,,,,,,,,,,,,,,,,,,,,,,,,,,,,5f6ad11391339f1b10bbea1f,5fe192c09bf07dbca1605368,2020-12-22_00h32.43.292,FlowerSimilarity_Experiment,2020.1.2,Win32,60,5fe17d4a51f3a9c1a60f9869,,,,,,,,,,,,,,,,,,,2,PF,,6,1.426,,,,,,,,,,,,,,,,,,,,,,,,,,,,,,,,,,92,33,1,0,0,response1disk,4,32,-13,-15,1,0,0,rectangle,-13,-15,1,0,0,7,6,"[31,126,263,13,25,212,64,44,124,64,72,3,81,317,283,28,107,13,93,68]",-13,-15,1,0,0,0,31,31,127,1,,,,,,,,,,,,,,,,,,,,,,,
,,,,,,,,,,,,,,,,,,,,,,,,,,,,,,,,,,,,,,,,,,,5f6ad11391339f1b10bbea1f,5fe192c09bf07dbca1605368,2020-12-22_00h32.43.292,FlowerSimilarity_Experiment,2020.1.2,Win32,60,5fe17d4a51f3a9c1a60f9869,,,,,,,,,,,,,,,,,,,1,PF,,6,0.678,,,,,,,,,,,,,,,,,,,,,,,,,,,,,,,,,,81,27,1,0,0,response1disk,7,33,-3,0,1,0,0,rectangle,-3,0,1,0,0,7,1,"[31,126,263,13,25,212,64,44,124,64,72,3,81,317,283,28,107,13,93,68]",-3,0,1,0,0,0,32,32,150,1,,,,,,,,,,,,,,,,,,,,,,,
,,,,,,,,,,,,,,,,,,,,,,,,,,,,,,,,,,,,,,,,,,,5f6ad11391339f1b10bbea1f,5fe192c09bf07dbca1605368,2020-12-22_00h32.43.292,FlowerSimilarity_Experiment,2020.1.2,Win32,60,5fe17d4a51f3a9c1a60f9869,,,,,,,,,,,,,,,,,,,1,PF,,6,0.652,,,,,,,,,,,,,,,,,,,,,,,,,,,,,,,,,,76,30,1,0,0,response1disk,8,34,-5,1,1,0,0,rectangle,-5,1,1,0,0,7,1,"[31,126,263,13,25,212,64,44,124,64,72,3,81,317,283,28,107,13,93,68]",-5,1,1,0,0,0,33,33,65,1,,,,,,,,,,,,,,,,,,,,,,,
,,,,,,,,,,,,,,,,,,,,,,,,,,,,,,,,,,,,,,,,,,,5f6ad11391339f1b10bbea1f,5fe192c09bf07dbca1605368,2020-12-22_00h32.43.292,FlowerSimilarity_Experiment,2020.1.2,Win32,60,5fe17d4a51f3a9c1a60f9869,,,,,,,,,,,,,,,,,,,8,PF,,7,0.828,,,,,,,,,,,,,,,,,,,,,,,,,,,,,,,,,,27,57,1,0,0,response1disk,4,35,2,-10,1,0,0,rectangle,2,-10,1,0,0,7,7,"[31,126,263,13,25,212,64,44,124,64,72,3,81,317,283,28,107,13,93,68]",2,-10,1,0,0,0,34,34,78,1,,,,,,,,,,,,,,,,,,,,,,,
,,,,,,,,,,,,,,,,,,,,,,,,,,,,,,,,,,,,,,,,,,,5f6ad11391339f1b10bbea1f,5fe192c09bf07dbca1605368,2020-12-22_00h32.43.292,FlowerSimilarity_Experiment,2020.1.2,Win32,60,5fe17d4a51f3a9c1a60f9869,,,,,,,,,,,,,,,,,,,7,PF,,7,0.75,,,,,,,,,,,,,,,,,,,,,,,,,,,,,,,,,,30,74,1,0,0,response1disk,9,36,5,7,1,0,0,rectangle,5,7,1,0,0,7,2,"[31,126,263,13,25,212,64,44,124,64,72,3,81,317,283,28,107,13,93,68]",5,7,1,0,0,0,35,35,10,1,,,,,,,,,,,,,,,,,,,,,,,
,,,,,,,,,,,,,,,,,,,,,,,,,,,,,,,,,,,,,,,,,,,5f6ad11391339f1b10bbea1f,5fe192c09bf07dbca1605368,2020-12-22_00h32.43.292,FlowerSimilarity_Experiment,2020.1.2,Win32,60,5fe17d4a51f3a9c1a60f9869,,,,,,,,,,,,,,,,,,,6,PF,,7,0.777,,,,,,,,,,,,,,,,,,,,,,,,,,,,,,,,,,42,64,1,0,0,response1disk,5,37,13,-1,1,0,0,rectangle,13,-1,1,0,0,7,7,"[31,126,263,13,25,212,64,44,124,64,72,3,81,317,283,28,107,13,93,68]",13,-1,1,0,0,0,36,36,59,1,,,,,,,,,,,,,,,,,,,,,,,
,,,,,,,,,,,,,,,,,,,,,,,,,,,,,,,,,,,,,,,,,,,5f6ad11391339f1b10bbea1f,5fe192c09bf07dbca1605368,2020-12-22_00h32.43.292,FlowerSimilarity_Experiment,2020.1.2,Win32,60,5fe17d4a51f3a9c1a60f9869,,,,,,,,,,,,,,,,,,,1,PF,,7,0.577,,,,,,,,,,,,,,,,,,,,,,,,,,,,,,,,,,31,65,1,0,0,response1disk,5,38,12,-6,1,0,0,rectangle,12,-6,1,0,0,7,3,"[31,126,263,13,25,212,64,44,124,64,72,3,81,317,283,28,107,13,93,68]",12,-6,1,0,0,0,37,37,28,1,,,,,,,,,,,,,,,,,,,,,,,
,,,,,,,,,,,,,,,,,,,,,,,,,,,,,,,,,,,,,,,,,,,5f6ad11391339f1b10bbea1f,5fe192c09bf07dbca1605368,2020-12-22_00h32.43.292,FlowerSimilarity_Experiment,2020.1.2,Win32,60,5fe17d4a51f3a9c1a60f9869,,,,,,,,,,,,,,,,,,,6,PF,,7,0.952,,,,,,,,,,,,,,,,,,,,,,,,,,,,,,,,,,40,69,1,0,0,response1disk,9,39,6,2,1,0,0,rectangle,6,2,1,0,0,7,3,"[31,126,263,13,25,212,64,44,124,64,72,3,81,317,283,28,107,13,93,68]",6,2,1,0,0,0,38,38,45,1,,,,,,,,,,,,,,,,,,,,,,,
,,,,,,,,,,,,,,,,,,,,,,,,,,,,,,,,,,,,,,,,,,,5f6ad11391339f1b10bbea1f,5fe192c09bf07dbca1605368,2020-12-22_00h32.43.292,FlowerSimilarity_Experiment,2020.1.2,Win32,60,5fe17d4a51f3a9c1a60f9869,,,,,,,,,,,,,,,,,,,6,PF,,7,0.602,,,,,,,,,,,,,,,,,,,,,,,,,,,,,,,,,,39,63,1,0,0,response1disk,8,40,8,-2,1,0,0,rectangle,8,-2,1,0,0,7,2,"[31,126,263,13,25,212,64,44,124,64,72,3,81,317,283,28,107,13,93,68]",8,-2,1,0,0,0,39,39,64,1,,,,,,,,,,,,,,,,,,,,,,,
,,,,,,,,,,,,,,,,,,,,,,,,,,,,,,,,,,,,,,,,,,,5f6ad11391339f1b10bbea1f,5fe192c09bf07dbca1605368,2020-12-22_00h32.43.292,FlowerSimilarity_Experiment,2020.1.2,Win32,60,5fe17d4a51f3a9c1a60f9869,,,,,,,,,,,,,,,,,,,4,FF,,7,0.703,,,,,,,,,,,,,,,,,,,,,,,,,,,,,,,,,,43,86,1,0,0,response1disk,6,41,22,6,1,0,0,rectangle,22,6,1,0,0,7,0,"[31,126,263,13,25,212,64,44,124,64,72,3,81,317,283,28,107,13,93,68]",22,6,1,0,0,0,40,40,122,1,,,,,,,,,,,,,,,,,,,,,,,
,,,,,,,,,,,,,,,,,,,,,,,,,,,,,,,,,,,,,,,,,,,5f6ad11391339f1b10bbea1f,5fe192c09bf07dbca1605368,2020-12-22_00h32.43.292,FlowerSimilarity_Experiment,2020.1.2,Win32,60,5fe17d4a51f3a9c1a60f9869,,,,,,,,,,,,,,,,,,,8,FF,,7,0.477,,,,,,,,,,,,,,,,,,,,,,,,,,,,,,,,,,40,71,1,0,0,response1disk,9,42,-2,-14,1,0,0,rectangle,-2,-14,1,0,0,7,4,"[31,126,263,13,25,212,64,44,124,64,72,3,81,317,283,28,107,13,93,68]",-2,-14,1,0,0,0,41,41,105,1,,,,,,,,,,,,,,,,,,,,,,,
,,,,,,,,,,,,,,,,,,,,,,,,,,,,,,,,,,,,,,,,,,,5f6ad11391339f1b10bbea1f,5fe192c09bf07dbca1605368,2020-12-22_00h32.43.292,FlowerSimilarity_Experiment,2020.1.2,Win32,60,5fe17d4a51f3a9c1a60f9869,,,,,,,,,,,,,,,,,,,7,PF,,7,0.627,,,,,,,,,,,,,,,,,,,,,,,,,,,,,,,,,,41,71,1,0,0,response1disk,8,43,1,1,1,0,0,rectangle,1,1,1,0,0,7,3,"[31,126,263,13,25,212,64,44,124,64,72,3,81,317,283,28,107,13,93,68]",1,1,1,0,0,0,42,42,140,1,,,,,,,,,,,,,,,,,,,,,,,
,,,,,,,,,,,,,,,,,,,,,,,,,,,,,,,,,,,,,,,,,,,5f6ad11391339f1b10bbea1f,5fe192c09bf07dbca1605368,2020-12-22_00h32.43.292,FlowerSimilarity_Experiment,2020.1.2,Win32,60,5fe17d4a51f3a9c1a60f9869,,,,,,,,,,,,,,,,,,,5,PF,,7,1.102,,,,,,,,,,,,,,,,,,,,,,,,,,,,,,,,,,55,88,1,0,0,response1disk,2,44,20,6,1,0,0,rectangle,-18,-72,1,0,0,3,3,"[31,126,263,13,25,212,64,44,124,64,72,3,81,317,283,28,107,13,93,68]",6,-5,1,0,0,0,43,43,129,1,response5disk_3,rectangle,,,,,,,,,,,,,,,,,,,,,
,,,,,,,,,,,,,,,,,,,,,,,,,,,,,,,,,,,,,,,,,,,5f6ad11391339f1b10bbea1f,5fe192c09bf07dbca1605368,2020-12-22_00h32.43.292,FlowerSimilarity_Experiment,2020.1.2,Win32,60,5fe17d4a51f3a9c1a60f9869,,,,,,,,,,,,,,,,,,,6,FF,,0,2.431,,,,,,,,,,,,,,,,,,,,,,,,,,,,,,,,,,-47,73,1,0,0,response7disk,1,45,7,5,1,0,0,rectangle,7,5,1,0,0,3,5,"[31,126,263,13,25,212,64,44,124,64,72,3,81,317,283,28,107,13,93,68]",7,5,1,0,0,0,44,44,5,1,,,,,,,,,,,,,,,,,,,,,,,
,,,,,,,,,,,,,,,,,,,,,,,,,,,,,,,,,,,,,,,,,,,5f6ad11391339f1b10bbea1f,5fe192c09bf07dbca1605368,2020-12-22_00h32.43.292,FlowerSimilarity_Experiment,2020.1.2,Win32,60,5fe17d4a51f3a9c1a60f9869,,,,,,,,,,,,,,,,,,,2,PF,,7,1.253,,,,,,,,,,,,,,,,,,,,,,,,,,,,,,,,,,57,87,1,0,0,response1disk,9,46,13,13,1,0,0,rectangle,13,13,1,0,0,3,3,"[31,126,263,13,25,212,64,44,124,64,72,3,81,317,283,28,107,13,93,68]",13,13,1,0,0,0,45,45,39,1,,,,,,,,,,,,,,,,,,,,,,,
,,,,,,,,,,,,,,,,,,,,,,,,,,,,,,,,,,,,,,,,,,,5f6ad11391339f1b10bbea1f,5fe192c09bf07dbca1605368,2020-12-22_00h32.43.292,FlowerSimilarity_Experiment,2020.1.2,Win32,60,5fe17d4a51f3a9c1a60f9869,,,,,,,,,,,,,,,,,,,1,FF,,7,0.753,,,,,,,,,,,,,,,,,,,,,,,,,,,,,,,,,,46,67,1,0,0,response1disk,8,47,13,0,1,0,0,rectangle,13,0,1,0,0,3,6,"[31,126,263,13,25,212,64,44,124,64,72,3,81,317,283,28,107,13,93,68]",13,0,1,0,0,0,46,46,27,1,,,,,,,,,,,,,,,,,,,,,,,
,,,,,,,,,,,,,,,,,,,,,,,,,,,,,,,,,,,,,,,,,,,5f6ad11391339f1b10bbea1f,5fe192c09bf07dbca1605368,2020-12-22_00h32.43.292,FlowerSimilarity_Experiment,2020.1.2,Win32,60,5fe17d4a51f3a9c1a60f9869,,,,,,,,,,,,,,,,,,,7,PF,,0,0.927,,,,,,,,,,,,,,,,,,,,,,,,,,,,,,,,,,-49,72,1,0,0,response7disk,7,48,-10,-2,1,0,0,rectangle,-10,-2,1,0,0,3,4,"[31,126,263,13,25,212,64,44,124,64,72,3,81,317,283,28,107,13,93,68]",-10,-2,1,0,0,0,47,47,51,1,,,,,,,,,,,,,,,,,,,,,,,
,,,,,,,,,,,,,,,,,,,,,,,,,,,,,,,,,,,,,,,,,,,5f6ad11391339f1b10bbea1f,5fe192c09bf07dbca1605368,2020-12-22_00h32.43.292,FlowerSimilarity_Experiment,2020.1.2,Win32,60,5fe17d4a51f3a9c1a60f9869,,,,,,,,,,,,,,,,,,,1,FF,,7,0.827,,,,,,,,,,,,,,,,,,,,,,,,,,,,,,,,,,43,67,1,0,0,response1disk,7,49,-10,-6,1,0,0,rectangle,-10,-6,1,0,0,3,1,"[31,126,263,13,25,212,64,44,124,64,72,3,81,317,283,28,107,13,93,68]",-10,-6,1,0,0,0,48,48,137,1,,,,,,,,,,,,,,,,,,,,,,,
,,,,,,,,,,,,,,,,,,,,,,,,,,,,,,,,,,,,,,,,,,,5f6ad11391339f1b10bbea1f,5fe192c09bf07dbca1605368,2020-12-22_00h32.43.292,FlowerSimilarity_Experiment,2020.1.2,Win32,60,5fe17d4a51f3a9c1a60f9869,,,,,,,,,,,,,,,,,,,5,FF,,0,0.903,,,,,,,,,,,,,,,,,,,,,,,,,,,,,,,,,,-38,82,1,0,0,response7disk,5,50,-10,1,1,0,0,rectangle,-10,1,1,0,0,3,5,"[31,126,263,13,25,212,64,44,124,64,72,3,81,317,283,28,107,13,93,68]",-10,1,1,0,0,0,49,49,19,1,,,,,,,,,,,,,,,,,,,,,,,
,,,,,,,,,,,,,,,,,,,,,,,,,,,,,,,,,,,,,,,,,,,5f6ad11391339f1b10bbea1f,5fe192c09bf07dbca1605368,2020-12-22_00h32.43.292,FlowerSimilarity_Experiment,2020.1.2,Win32,60,5fe17d4a51f3a9c1a60f9869,,,,,,,,,,,,,,,,,,,8,PF,,0,0.677,,,,,,,,,,,,,,,,,,,,,,,,,,,,,,,,,,-27,58,1,0,0,response7disk,8,51,-6,-8,1,0,0,rectangle,-6,-8,1,0,0,3,5,"[31,126,263,13,25,212,64,44,124,64,72,3,81,317,283,28,107,13,93,68]",-6,-8,1,0,0,0,50,50,153,1,,,,,,,,,,,,,,,,,,,,,,,
,,,,,,,,,,,,,,,,,,,,,,,,,,,,,,,,,,,,,,,,,,,5f6ad11391339f1b10bbea1f,5fe192c09bf07dbca1605368,2020-12-22_00h32.43.292,FlowerSimilarity_Experiment,2020.1.2,Win32,60,5fe17d4a51f3a9c1a60f9869,,,,,,,,,,,,,,,,,,,7,PF,,7,0.728,,,,,,,,,,,,,,,,,,,,,,,,,,,,,,,,,,65,71,1,0,0,response1disk,6,52,26,-9,1,0,0,rectangle,26,-9,1,0,0,3,3,"[31,126,263,13,25,212,64,44,124,64,72,3,81,317,283,28,107,13,93,68]",26,-9,1,0,0,0,51,51,29,1,,,,,,,,,,,,,,,,,,,,,,,
,,,,,,,,,,,,,,,,,,,,,,,,,,,,,,,,,,,,,,,,,,,5f6ad11391339f1b10bbea1f,5fe192c09bf07dbca1605368,2020-12-22_00h32.43.292,FlowerSimilarity_Experiment,2020.1.2,Win32,60,5fe17d4a51f3a9c1a60f9869,,,,,,,,,,,,,,,,,,,5,FF,,0,0.726,,,,,,,,,,,,,,,,,,,,,,,,,,,,,,,,,,-30,72,1,0,0,response7disk,8,53,-10,-5,1,0,0,rectangle,-10,-5,1,0,0,3,6,"[31,126,263,13,25,212,64,44,124,64,72,3,81,317,283,28,107,13,93,68]",-10,-5,1,0,0,0,52,52,16,1,,,,,,,,,,,,,,,,,,,,,,,
,,,,,,,,,,,,,,,,,,,,,,,,,,,,,,,,,,,,,,,,,,,5f6ad11391339f1b10bbea1f,5fe192c09bf07dbca1605368,2020-12-22_00h32.43.292,FlowerSimilarity_Experiment,2020.1.2,Win32,60,5fe17d4a51f3a9c1a60f9869,,,,,,,,,,,,,,,,,,,4,FF,,0,0.952,,,,,,,,,,,,,,,,,,,,,,,,,,,,,,,,,,-25,54,1,0,0,response7disk,1,54,-6,-6,1,0,0,rectangle,-6,-6,1,0,0,3,2,"[31,126,263,13,25,212,64,44,124,64,72,3,81,317,283,28,107,13,93,68]",-6,-6,1,0,0,0,53,53,102,1,,,,,,,,,,,,,,,,,,,,,,,
,,,,,,,,,,,,,,,,,,,,,,,,,,,,,,,,,,,,,,,,,,,5f6ad11391339f1b10bbea1f,5fe192c09bf07dbca1605368,2020-12-22_00h32.43.292,FlowerSimilarity_Experiment,2020.1.2,Win32,60,5fe17d4a51f3a9c1a60f9869,,,,,,,,,,,,,,,,,,,1,FF,,0,0.852,,,,,,,,,,,,,,,,,,,,,,,,,,,,,,,,,,-34,74,1,0,0,response7disk,6,55,-14,-1,1,0,0,rectangle,-14,-1,1,0,0,3,0,"[31,126,263,13,25,212,64,44,124,64,72,3,81,317,283,28,107,13,93,68]",-14,-1,1,0,0,0,54,54,58,1,,,,,,,,,,,,,,,,,,,,,,,
,,,,,,,,,,,,,,,,,,,,,,,,,,,,,,,,,,,,,,,,,,,5f6ad11391339f1b10bbea1f,5fe192c09bf07dbca1605368,2020-12-22_00h32.43.292,FlowerSimilarity_Experiment,2020.1.2,Win32,60,5fe17d4a51f3a9c1a60f9869,,,,,,,,,,,,,,,,,,,3,PF,,4,1.905,,,,,,,,,,,,,,,,,,,,,,,,,,,,,,,,,,25,-70,1,0,0,response3disk,4,56,10,10,1,0,0,rectangle,10,10,1,0,0,3,1,"[31,126,263,13,25,212,64,44,124,64,72,3,81,317,283,28,107,13,93,68]",10,10,1,0,0,0,55,55,30,1,,,,,,,,,,,,,,,,,,,,,,,
,,,,,,,,,,,,,,,,,,,,,,,,,,,,,,,,,,,,,,,,,,,5f6ad11391339f1b10bbea1f,5fe192c09bf07dbca1605368,2020-12-22_00h32.43.292,FlowerSimilarity_Experiment,2020.1.2,Win32,60,5fe17d4a51f3a9c1a60f9869,,,,,,,,,,,,,,,,,,,9,PF,,0,0.802,,,,,,,,,,,,,,,,,,,,,,,,,,,,,,,,,,-47,82,1,0,0,response7disk,1,57,6,8,1,0,0,rectangle,6,8,1,0,0,3,4,"[31,126,263,13,25,212,64,44,124,64,72,3,81,317,283,28,107,13,93,68]",6,8,1,0,0,0,56,56,74,1,,,,,,,,,,,,,,,,,,,,,,,
,,,,,,,,,,,,,,,,,,,,,,,,,,,,,,,,,,,,,,,,,,,5f6ad11391339f1b10bbea1f,5fe192c09bf07dbca1605368,2020-12-22_00h32.43.292,FlowerSimilarity_Experiment,2020.1.2,Win32,60,5fe17d4a51f3a9c1a60f9869,,,,,,,,,,,,,,,,,,,2,FF,,4,1.428,,,,,,,,,,,,,,,,,,,,,,,,,,,,,,,,,,42,-78,1,0,0,response3disk,5,58,7,0,1,0,0,rectangle,7,0,1,0,0,3,6,"[31,126,263,13,25,212,64,44,124,64,72,3,81,317,283,28,107,13,93,68]",7,0,1,0,0,0,57,57,80,1,,,,,,,,,,,,,,,,,,,,,,,
,,,,,,,,,,,,,,,,,,,,,,,,,,,,,,,,,,,,,,,,,,,5f6ad11391339f1b10bbea1f,5fe192c09bf07dbca1605368,2020-12-22_00h32.43.292,FlowerSimilarity_Experiment,2020.1.2,Win32,60,5fe17d4a51f3a9c1a60f9869,,,,,,,,,,,,,,,,,,,6,PF,,5,0.879,,,,,,,,,,,,,,,,,,,,,,,,,,,,,,,,,,95,-50,1,0,0,response3disk,7,59,-3,-2,1,0,0,rectangle,-3,-2,1,0,0,3,7,"[31,126,263,13,25,212,64,44,124,64,72,3,81,317,283,28,107,13,93,68]",-3,-2,1,0,0,0,58,58,50,1,,,,,,,,,,,,,,,,,,,,,,,
,,,,,,,,,,,,,,,,,,,,,,,,,,,,,,,,,,,,,,,,,,,5f6ad11391339f1b10bbea1f,5fe192c09bf07dbca1605368,2020-12-22_00h32.43.292,FlowerSimilarity_Experiment,2020.1.2,Win32,60,5fe17d4a51f3a9c1a60f9869,,,,,,,,,,,,,,,,,,,8,PF,,7,0.727,,,,,,,,,,,,,,,,,,,,,,,,,,,,,,,,,,53,91,1,0,0,response1disk,6,60,6,-12,1,0,0,rectangle,6,-12,1,0,0,3,1,"[31,126,263,13,25,212,64,44,124,64,72,3,81,317,283,28,107,13,93,68]",6,-12,1,0,0,0,59,59,161,1,,,,,,,,,,,,,,,,,,,,,,,
,,,,,,,,,,,,,,,,,,,,,,,,,,,,,,,,,,,,,,,,,,,5f6ad11391339f1b10bbea1f,5fe192c09bf07dbca1605368,2020-12-22_00h32.43.292,FlowerSimilarity_Experiment,2020.1.2,Win32,60,5fe17d4a51f3a9c1a60f9869,,,,,,,,,,,,,,,,,,,7,FF,,7,0.602,,,,,,,,,,,,,,,,,,,,,,,,,,,,,,,,,,52,85,1,0,0,response1disk,5,61,16,-11,1,0,0,rectangle,16,-11,1,0,0,3,7,"[31,126,263,13,25,212,64,44,124,64,72,3,81,317,283,28,107,13,93,68]",16,-11,1,0,0,0,60,60,156,1,,,,,,,,,,,,,,,,,,,,,,,
,,,,,,,,,,,,,,,,,,,,,,,,,,,,,,,,,,,,,,,,,,,5f6ad11391339f1b10bbea1f,5fe192c09bf07dbca1605368,2020-12-22_00h32.43.292,FlowerSimilarity_Experiment,2020.1.2,Win32,60,5fe17d4a51f3a9c1a60f9869,,,,,,,,,,,,,,,,,,,7,FF,,4,1.52,,,,,,,,,,,,,,,,,,,,,,,,,,,,,,,,,,35,-85,1,0,0,response3disk,4,62,3,5,1,0,0,rectangle,3,5,1,0,0,3,4,"[31,126,263,13,25,212,64,44,124,64,72,3,81,317,283,28,107,13,93,68]",3,5,1,0,0,0,61,61,158,1,,,,,,,,,,,,,,,,,,,,,,,
,,,,,,,,,,,,,,,,,,,,,,,,,,,,,,,,,,,,,,,,,,,5f6ad11391339f1b10bbea1f,5fe192c09bf07dbca1605368,2020-12-22_00h32.43.292,FlowerSimilarity_Experiment,2020.1.2,Win32,60,5fe17d4a51f3a9c1a60f9869,,,,,,,,,,,,,,,,,,,1,FF,,0,0.825,,,,,,,,,,,,,,,,,,,,,,,,,,,,,,,,,,-57,59,1,0,0,response7disk,9,63,-8,-10,1,0,0,rectangle,-8,-10,1,0,0,3,1,"[31,126,263,13,25,212,64,44,124,64,72,3,81,317,283,28,107,13,93,68]",-8,-10,1,0,0,0,62,62,123,1,,,,,,,,,,,,,,,,,,,,,,,
,,,,,,,,,,,,,,,,,,,,,,,,,,,,,,,,,,,,,,,,,,,5f6ad11391339f1b10bbea1f,5fe192c09bf07dbca1605368,2020-12-22_00h32.43.292,FlowerSimilarity_Experiment,2020.1.2,Win32,60,5fe17d4a51f3a9c1a60f9869,,,,,,,,,,,,,,,,,,,9,PF,,6,1.288,,,,,,,,,,,,,,,,,,,,,,,,,,,,,,,,,,58,46,1,0,0,response1disk,2,64,4,10,1,0,0,rectangle,-33,94,1,0,0,0,0,"[31,126,263,13,25,212,64,44,124,64,72,3,81,317,283,28,107,13,93,68]",7,-1,1,0,0,0,63,63,157,1,response7disk_3,rectangle,,,,,,,,,,,,,,,,,,,,,
,,,,,,,,,,,,,,,,,,,,,,,,,,,,,,,,,,,,,,,,,,,5f6ad11391339f1b10bbea1f,5fe192c09bf07dbca1605368,2020-12-22_00h32.43.292,FlowerSimilarity_Experiment,2020.1.2,Win32,60,5fe17d4a51f3a9c1a60f9869,,,,,,,,,,,,,,,,,,,7,FF,,6,0.828,,,,,,,,,,,,,,,,,,,,,,,,,,,,,,,,,,73,35,1,0,0,response1disk,1,65,24,3,1,0,0,rectangle,24,3,1,0,0,0,7,"[31,126,263,13,25,212,64,44,124,64,72,3,81,317,283,28,107,13,93,68]",24,3,1,0,0,0,64,64,132,1,,,,,,,,,,,,,,,,,,,,,,,
,,,,,,,,,,,,,,,,,,,,,,,,,,,,,,,,,,,,,,,,,,,5f6ad11391339f1b10bbea1f,5fe192c09bf07dbca1605368,2020-12-22_00h32.43.292,FlowerSimilarity_Experiment,2020.1.2,Win32,60,5fe17d4a51f3a9c1a60f9869,,,,,,,,,,,,,,,,,,,1,PF,,7,0.626,,,,,,,,,,,,,,,,,,,,,,,,,,,,,,,,,,45,90,1,0,0,response1disk,2,66,7,-1,1,0,0,rectangle,7,-1,1,0,0,0,5,"[31,126,263,13,25,212,64,44,124,64,72,3,81,317,283,28,107,13,93,68]",7,-1,1,0,0,0,65,65,24,1,,,,,,,,,,,,,,,,,,,,,,,
,,,,,,,,,,,,,,,,,,,,,,,,,,,,,,,,,,,,,,,,,,,5f6ad11391339f1b10bbea1f,5fe192c09bf07dbca1605368,2020-12-22_00h32.43.292,FlowerSimilarity_Experiment,2020.1.2,Win32,60,5fe17d4a51f3a9c1a60f9869,,,,,,,,,,,,,,,,,,,3,PF,,7,0.727,,,,,,,,,,,,,,,,,,,,,,,,,,,,,,,,,,31,65,1,0,0,response1disk,1,67,-14,-1,1,0,0,rectangle,-14,-1,1,0,0,0,4,"[31,126,263,13,25,212,64,44,124,64,72,3,81,317,283,28,107,13,93,68]",-14,-1,1,0,0,0,66,66,96,1,,,,,,,,,,,,,,,,,,,,,,,
,,,,,,,,,,,,,,,,,,,,,,,,,,,,,,,,,,,,,,,,,,,5f6ad11391339f1b10bbea1f,5fe192c09bf07dbca1605368,2020-12-22_00h32.43.292,FlowerSimilarity_Experiment,2020.1.2,Win32,60,5fe17d4a51f3a9c1a60f9869,,,,,,,,,,,,,,,,,,,1,PF,,0,0.751,,,,,,,,,,,,,,,,,,,,,,,,,,,,,,,,,,-37,90,1,0,0,response7disk,9,68,-3,-2,1,0,0,rectangle,-94,-45,1,0,0,0,2,"[31,126,263,13,25,212,64,44,124,64,72,3,81,317,283,28,107,13,93,68]",6,-1,1,0,0,0,67,67,15,1,response5disk_3,rectangle,,,,,,,,,,,,,,,,,,,,,
,,,,,,,,,,,,,,,,,,,,,,,,,,,,,,,,,,,,,,,,,,,5f6ad11391339f1b10bbea1f,5fe192c09bf07dbca1605368,2020-12-22_00h32.43.292,FlowerSimilarity_Experiment,2020.1.2,Win32,60,5fe17d4a51f3a9c1a60f9869,,,,,,,,,,,,,,,,,,,9,PF,,6,2.328,,,,,,,,,,,,,,,,,,,,,,,,,,,,,,,,,,79,34,1,0,0,response1disk,3,69,-16,-2,1,0,0,rectangle,-16,-2,1,0,0,0,7,"[31,126,263,13,25,212,64,44,124,64,72,3,81,317,283,28,107,13,93,68]",-16,-2,1,0,0,0,68,68,119,1,,,,,,,,,,,,,,,,,,,,,,,
,,,,,,,,,,,,,,,,,,,,,,,,,,,,,,,,,,,,,,,,,,,5f6ad11391339f1b10bbea1f,5fe192c09bf07dbca1605368,2020-12-22_00h32.43.292,FlowerSimilarity_Experiment,2020.1.2,Win32,60,5fe17d4a51f3a9c1a60f9869,,,,,,,,,,,,,,,,,,,2,PF,,7,0.827,,,,,,,,,,,,,,,,,,,,,,,,,,,,,,,,,,34,65,1,0,0,response1disk,8,70,-7,2,1,0,0,rectangle,-7,2,1,0,0,0,4,"[31,126,263,13,25,212,64,44,124,64,72,3,81,317,283,28,107,13,93,68]",-7,2,1,0,0,0,69,69,52,1,,,,,,,,,,,,,,,,,,,,,,,
,,,,,,,,,,,,,,,,,,,,,,,,,,,,,,,,,,,,,,,,,,,5f6ad11391339f1b10bbea1f,5fe192c09bf07dbca1605368,2020-12-22_00h32.43.292,FlowerSimilarity_Experiment,2020.1.2,Win32,60,5fe17d4a51f3a9c1a60f9869,,,,,,,,,,,,,,,,,,,7,FF,,0,0.827,,,,,,,,,,,,,,,,,,,,,,,,,,,,,,,,,,-50,86,1,0,0,response7disk,2,71,-1,-1,1,0,0,rectangle,-1,-1,1,0,0,0,0,"[31,126,263,13,25,212,64,44,124,64,72,3,81,317,283,28,107,13,93,68]",-1,-1,1,0,0,0,70,70,138,1,,,,,,,,,,,,,,,,,,,,,,,
,,,,,,,,,,,,,,,,,,,,,,,,,,,,,,,,,,,,,,,,,,,5f6ad11391339f1b10bbea1f,5fe192c09bf07dbca1605368,2020-12-22_00h32.43.292,FlowerSimilarity_Experiment,2020.1.2,Win32,60,5fe17d4a51f3a9c1a60f9869,,,,,,,,,,,,,,,,,,,8,PF,,7,0.652,,,,,,,,,,,,,,,,,,,,,,,,,,,,,,,,,,40,71,1,0,0,response1disk,9,72,10,10,1,0,0,rectangle,-43,109,1,0,0,0,0,"[31,126,263,13,25,212,64,44,124,64,72,3,81,317,283,28,107,13,93,68]",-3,0,1,0,0,0,71,71,42,1,response7disk_3,rectangle,,,,,,,,,,,,,,,,,,,,,
,,,,,,,,,,,,,,,,,,,,,,,,,,,,,,,,,,,,,,,,,,,5f6ad11391339f1b10bbea1f,5fe192c09bf07dbca1605368,2020-12-22_00h32.43.292,FlowerSimilarity_Experiment,2020.1.2,Win32,60,5fe17d4a51f3a9c1a60f9869,,,,,,,,,,,,,,,,,,,3,FF,,7,0.625,,,,,,,,,,,,,,,,,,,,,,,,,,,,,,,,,,36,68,1,0,0,response1disk,6,73,2,6,1,0,0,rectangle,2,6,1,0,0,0,3,"[31,126,263,13,25,212,64,44,124,64,72,3,81,317,283,28,107,13,93,68]",2,6,1,0,0,0,72,72,95,1,,,,,,,,,,,,,,,,,,,,,,,
,,,,,,,,,,,,,,,,,,,,,,,,,,,,,,,,,,,,,,,,,,,5f6ad11391339f1b10bbea1f,5fe192c09bf07dbca1605368,2020-12-22_00h32.43.292,FlowerSimilarity_Experiment,2020.1.2,Win32,60,5fe17d4a51f3a9c1a60f9869,,,,,,,,,,,,,,,,,,,3,PF,,0,0.902,,,,,,,,,,,,,,,,,,,,,,,,,,,,,,,,,,-45,85,1,0,0,response7disk,2,74,-17,4,1,0,0,rectangle,-17,4,1,0,0,0,4,"[31,126,263,13,25,212,64,44,124,64,72,3,81,317,283,28,107,13,93,68]",-17,4,1,0,0,0,73,73,36,1,,,,,,,,,,,,,,,,,,,,,,,
,,,,,,,,,,,,,,,,,,,,,,,,,,,,,,,,,,,,,,,,,,,5f6ad11391339f1b10bbea1f,5fe192c09bf07dbca1605368,2020-12-22_00h32.43.292,FlowerSimilarity_Experiment,2020.1.2,Win32,60,5fe17d4a51f3a9c1a60f9869,,,,,,,,,,,,,,,,,,,5,FF,,7,0.653,,,,,,,,,,,,,,,,,,,,,,,,,,,,,,,,,,38,68,1,0,0,response1disk,1,75,10,-13,1,0,0,rectangle,10,-13,1,0,0,0,0,"[31,126,263,13,25,212,64,44,124,64,72,3,81,317,283,28,107,13,93,68]",10,-13,1,0,0,0,74,74,131,1,,,,,,,,,,,,,,,,,,,,,,,
,,,,,,,,,,,,,,,,,,,,,,,,,,,,,,,,,,,,,,,,,,,5f6ad11391339f1b10bbea1f,5fe192c09bf07dbca1605368,2020-12-22_00h32.43.292,FlowerSimilarity_Experiment,2020.1.2,Win32,60,5fe17d4a51f3a9c1a60f9869,,,,,,,,,,,,,,,,,,,5,PF,,0,0.954,,,,,,,,,,,,,,,,,,,,,,,,,,,,,,,,,,-40,79,1,0,0,response7disk,5,76,-5,4,1,0,0,rectangle,-5,4,1,0,0,0,5,"[31,126,263,13,25,212,64,44,124,64,72,3,81,317,283,28,107,13,93,68]",-5,4,1,0,0,0,75,75,94,1,,,,,,,,,,,,,,,,,,,,,,,
,,,,,,,,,,,,,,,,,,,,,,,,,,,,,,,,,,,,,,,,,,,5f6ad11391339f1b10bbea1f,5fe192c09bf07dbca1605368,2020-12-22_00h32.43.292,FlowerSimilarity_Experiment,2020.1.2,Win32,60,5fe17d4a51f3a9c1a60f9869,,,,,,,,,,,,,,,,,,,4,FF,,7,0.851,,,,,,,,,,,,,,,,,,,,,,,,,,,,,,,,,,26,61,1,0,0,response1disk,8,77,-1,-12,1,0,0,rectangle,-1,-12,1,0,0,0,1,"[31,126,263,13,25,212,64,44,124,64,72,3,81,317,283,28,107,13,93,68]",-1,-12,1,0,0,0,76,76,35,1,,,,,,,,,,,,,,,,,,,,,,,
,,,,,,,,,,,,,,,,,,,,,,,,,,,,,,,,,,,,,,,,,,,5f6ad11391339f1b10bbea1f,5fe192c09bf07dbca1605368,2020-12-22_00h32.43.292,FlowerSimilarity_Experiment,2020.1.2,Win32,60,5fe17d4a51f3a9c1a60f9869,,,,,,,,,,,,,,,,,,,4,PF,,7,0.878,,,,,,,,,,,,,,,,,,,,,,,,,,,,,,,,,,39,63,1,0,0,response1disk,9,78,9,-1,1,0,0,rectangle,9,-1,1,0,0,0,5,"[31,126,263,13,25,212,64,44,124,64,72,3,81,317,283,28,107,13,93,68]",9,-1,1,0,0,0,77,77,75,1,,,,,,,,,,,,,,,,,,,,,,,
,,,,,,,,,,,,,,,,,,,,,,,,,,,,,,,,,,,,,,,,,,,5f6ad11391339f1b10bbea1f,5fe192c09bf07dbca1605368,2020-12-22_00h32.43.292,FlowerSimilarity_Experiment,2020.1.2,Win32,60,5fe17d4a51f3a9c1a60f9869,,,,,,,,,,,,,,,,,,,2,PF,,0,0.752,,,,,,,,,,,,,,,,,,,,,,,,,,,,,,,,,,-33,86,1,0,0,response7disk,7,79,-7,-1,1,0,0,rectangle,-7,-1,1,0,0,0,6,"[31,126,263,13,25,212,64,44,124,64,72,3,81,317,283,28,107,13,93,68]",-7,-1,1,0,0,0,78,78,107,1,,,,,,,,,,,,,,,,,,,,,,,
,,,,,,,,,,,,,,,,,,,,,,,,,,,,,,,,,,,,,,,,,,,5f6ad11391339f1b10bbea1f,5fe192c09bf07dbca1605368,2020-12-22_00h32.43.292,FlowerSimilarity_Experiment,2020.1.2,Win32,60,5fe17d4a51f3a9c1a60f9869,,,,,,,,,,,,,,,,,,,3,PF,,7,0.826,,,,,,,,,,,,,,,,,,,,,,,,,,,,,,,,,,27,46,1,0,0,response1disk,6,80,10,-8,1,0,0,rectangle,10,-8,1,0,0,0,4,"[31,126,263,13,25,212,64,44,124,64,72,3,81,317,283,28,107,13,93,68]",10,-8,1,0,0,0,79,79,47,1,,,,,,,,,,,,,,,,,,,,,,,
,,,,,,,,,,,,,,,,,,,,,,,,,,,,,,,,,,,,,,,,,,,5f6ad11391339f1b10bbea1f,5fe192c09bf07dbca1605368,2020-12-22_00h32.43.292,FlowerSimilarity_Experiment,2020.1.2,Win32,60,5fe17d4a51f3a9c1a60f9869,,,,,,,,,,,,,,,,,,,3,PF,,0,1.127,,,,,,,,,,,,,,,,,,,,,,,,,,,,,,,,,,-29,99,1,0,0,response7disk,7,81,9,10,1,0,0,rectangle,-34,80,1,0,0,0,0,"[31,126,263,13,25,212,64,44,124,64,72,3,81,317,283,28,107,13,93,68]",10,-4,1,0,0,0,80,80,41,1,response7disk_3,rectangle,,,,,,,,,,,,,,,,,,,,,
,,,,,,,,,,,,,,,,,,,,,,,,,,,,,,,,,,,,,,,,,,,5f6ad11391339f1b10bbea1f,5fe192c09bf07dbca1605368,2020-12-22_00h32.43.292,FlowerSimilarity_Experiment,2020.1.2,Win32,60,5fe17d4a51f3a9c1a60f9869,,,,,,,,,,,,,,,,,,,9,FF,,5,1.052,,,,,,,,,,,,,,,,,,,,,,,,,,,,,,,,,,67,-34,1,0,0,response3disk,4,82,15,12,1,0,0,rectangle,15,12,1,0,0,0,7,"[31,126,263,13,25,212,64,44,124,64,72,3,81,317,283,28,107,13,93,68]",15,12,1,0,0,0,81,81,60,1,,,,,,,,,,,,,,,,,,,,,,,
,,,,,,,,,,,,,,,,,,,,,,,,,,,,,,,,,,,,,,,,,,,5f6ad11391339f1b10bbea1f,5fe192c09bf07dbca1605368,2020-12-22_00h32.43.292,FlowerSimilarity_Experiment,2020.1.2,Win32,60,5fe17d4a51f3a9c1a60f9869,,,,,,,,,,,,,,,,,,,3,FF,,6,0.952,,,,,,,,,,,,,,,,,,,,,,,,,,,,,,,,,,67,46,1,0,0,response1disk,8,83,15,12,1,0,0,rectangle,15,12,1,0,0,0,6,"[31,126,263,13,25,212,64,44,124,64,72,3,81,317,283,28,107,13,93,68]",15,12,1,0,0,0,82,82,44,1,,,,,,,,,,,,,,,,,,,,,,,
,,,,,,,,,,,,,,,,,,,,,,,,,,,,,,,,,,,,,,,,,,,5f6ad11391339f1b10bbea1f,5fe192c09bf07dbca1605368,2020-12-22_00h32.43.292,FlowerSimilarity_Experiment,2020.1.2,Win32,60,5fe17d4a51f3a9c1a60f9869,,,,,,,,,,,,,,,,,,,6,PF,,7,0.877,,,,,,,,,,,,,,,,,,,,,,,,,,,,,,,,,,31,58,1,0,0,response1disk,2,84,-2,-7,1,0,0,rectangle,-2,-7,1,0,0,0,4,"[31,126,263,13,25,212,64,44,124,64,72,3,81,317,283,28,107,13,93,68]",-2,-7,1,0,0,0,83,83,130,1,,,,,,,,,,,,,,,,,,,,,,,
,,,,,,,,,,,,,,,,,,,,,,,,,,,,,,,,,,,,,,,,,,,5f6ad11391339f1b10bbea1f,5fe192c09bf07dbca1605368,2020-12-22_00h32.43.292,FlowerSimilarity_Experiment,2020.1.2,Win32,60,5fe17d4a51f3a9c1a60f9869,,,,,,,,,,,,,,,,,,,4,PF,,7,0.627,,,,,,,,,,,,,,,,,,,,,,,,,,,,,,,,,,31,70,1,0,0,response1disk,8,85,-3,-3,1,0,0,rectangle,-3,-3,1,0,0,0,2,"[31,126,263,13,25,212,64,44,124,64,72,3,81,317,283,28,107,13,93,68]",-3,-3,1,0,0,0,84,84,124,1,,,,,,,,,,,,,,,,,,,,,,,
,,,,,,,,,,,,,,,,,,,,,,,,,,,,,,,,,,,,,,,,,,,5f6ad11391339f1b10bbea1f,5fe192c09bf07dbca1605368,2020-12-22_00h32.43.292,FlowerSimilarity_Experiment,2020.1.2,Win32,60,5fe17d4a51f3a9c1a60f9869,,,,,,,,,,,,,,,,,,,1,FF,,0,0.976,,,,,,,,,,,,,,,,,,,,,,,,,,,,,,,,,,-47,88,1,0,0,response7disk,1,86,-9,-2,1,0,0,rectangle,-9,-2,1,0,0,0,6,"[31,126,263,13,25,212,64,44,124,64,72,3,81,317,283,28,107,13,93,68]",-9,-2,1,0,0,0,85,85,151,1,,,,,,,,,,,,,,,,,,,,,,,
,,,,,,,,,,,,,,,,,,,,,,,,,,,,,,,,,,,,,,,,,,,5f6ad11391339f1b10bbea1f,5fe192c09bf07dbca1605368,2020-12-22_00h32.43.292,FlowerSimilarity_Experiment,2020.1.2,Win32,60,5fe17d4a51f3a9c1a60f9869,,,,,,,,,,,,,,,,,,,5,FF,,3,1.329,,,,,,,,,,,,,,,,,,,,,,,,,,,,,,,,,,-26,-92,1,0,0,response5disk,2,87,14,3,1,0,0,rectangle,14,3,1,0,0,0,4,"[31,126,263,13,25,212,64,44,124,64,72,3,81,317,283,28,107,13,93,68]",14,3,1,0,0,0,86,86,55,1,,,,,,,,,,,,,,,,,,,,,,,
,,,,,,,,,,,,,,,,,,,,,,,,,,,,,,,,,,,,,,,,,,,5f6ad11391339f1b10bbea1f,5fe192c09bf07dbca1605368,2020-12-22_00h32.43.292,FlowerSimilarity_Experiment,2020.1.2,Win32,60,5fe17d4a51f3a9c1a60f9869,,,,,,,,,,,,,,,,,,,9,PF,,4,1.279,,,,,,,,,,,,,,,,,,,,,,,,,,,,,,,,,,28,-50,1,0,0,response3disk,6,88,1,7,1,0,0,rectangle,1,7,1,0,0,0,5,"[31,126,263,13,25,212,64,44,124,64,72,3,81,317,283,28,107,13,93,68]",1,7,1,0,0,0,87,87,148,1,,,,,,,,,,,,,,,,,,,,,,,
,,,,,,,,,,,,,,,,,,,,,,,,,,,,,,,,,,,,,,,,,,,5f6ad11391339f1b10bbea1f,5fe192c09bf07dbca1605368,2020-12-22_00h32.43.292,FlowerSimilarity_Experiment,2020.1.2,Win32,60,5fe17d4a51f3a9c1a60f9869,,,,,,,,,,,,,,,,,,,7,PF,,0,0.775,,,,,,,,,,,,,,,,,,,,,,,,,,,,,,,,,,-31,77,1,0,0,response7disk,3,89,4,9,1,0,0,rectangle,4,9,1,0,0,0,7,"[31,126,263,13,25,212,64,44,124,64,72,3,81,317,283,28,107,13,93,68]",4,9,1,0,0,0,88,88,81,1,,,,,,,,,,,,,,,,,,,,,,,
,,,,,,,,,,,,,,,,,,,,,,,,,,,,,,,,,,,,,,,,,,,5f6ad11391339f1b10bbea1f,5fe192c09bf07dbca1605368,2020-12-22_00h32.43.292,FlowerSimilarity_Experiment,2020.1.2,Win32,60,5fe17d4a51f3a9c1a60f9869,,,,,,,,,,,,,,,,,,,5,FF,,5,1.504,,,,,,,,,,,,,,,,,,,,,,,,,,,,,,,,,,69,-36,1,0,0,response3disk,3,90,4,0,1,0,0,rectangle,4,0,1,0,0,0,0,"[31,126,263,13,25,212,64,44,124,64,72,3,81,317,283,28,107,13,93,68]",4,0,1,0,0,0,89,89,25,1,,,,,,,,,,,,,,,,,,,,,,,
,,,,,,,,,,,,,,,,,,,,,,,,,,,,,,,,,,,,,,,,,,,5f6ad11391339f1b10bbea1f,5fe192c09bf07dbca1605368,2020-12-22_00h32.43.292,FlowerSimilarity_Experiment,2020.1.2,Win32,60,5fe17d4a51f3a9c1a60f9869,,,,,,,,,,,,,,,,,,,3,PF,,5,1.038,,,,,,,,,,,,,,,,,,,,,,,,,,,,,,,,,,92,-46,1,0,0,response3disk,5,91,-16,5,1,0,0,rectangle,-16,5,1,0,0,0,4,"[31,126,263,13,25,212,64,44,124,64,72,3,81,317,283,28,107,13,93,68]",-16,5,1,0,0,0,90,90,66,1,,,,,,,,,,,,,,,,,,,,,,,
,,,,,,,,,,,,,,,,,,,,,,,,,,,,,,,,,,,,,,,,,,,5f6ad11391339f1b10bbea1f,5fe192c09bf07dbca1605368,2020-12-22_00h32.43.292,FlowerSimilarity_Experiment,2020.1.2,Win32,60,5fe17d4a51f3a9c1a60f9869,,,,,,,,,,,,,,,,,,,9,PF,,6,0.709,,,,,,,,,,,,,,,,,,,,,,,,,,,,,,,,,,65,49,1,0,0,response1disk,5,92,21,-4,1,0,0,rectangle,21,-4,1,0,0,0,0,"[31,126,263,13,25,212,64,44,124,64,72,3,81,317,283,28,107,13,93,68]",21,-4,1,0,0,0,91,91,134,1,,,,,,,,,,,,,,,,,,,,,,,
,,,,,,,,,,,,,,,,,,,,,,,,,,,,,,,,,,,,,,,,,,,5f6ad11391339f1b10bbea1f,5fe192c09bf07dbca1605368,2020-12-22_00h32.43.292,FlowerSimilarity_Experiment,2020.1.2,Win32,60,5fe17d4a51f3a9c1a60f9869,,,,,,,,,,,,,,,,,,,8,PF,,7,0.627,,,,,,,,,,,,,,,,,,,,,,,,,,,,,,,,,,28,67,1,0,0,response1disk,2,93,-2,7,1,0,0,rectangle,-36,72,1,0,0,0,0,"[31,126,263,13,25,212,64,44,124,64,72,3,81,317,283,28,107,13,93,68]",-3,-2,1,0,0,0,92,92,83,1,response7disk_3,rectangle,,,,,,,,,,,,,,,,,,,,,
,,,,,,,,,,,,,,,,,,,,,,,,,,,,,,,,,,,,,,,,,,,5f6ad11391339f1b10bbea1f,5fe192c09bf07dbca1605368,2020-12-22_00h32.43.292,FlowerSimilarity_Experiment,2020.1.2,Win32,60,5fe17d4a51f3a9c1a60f9869,,,,,,,,,,,,,,,,,,,8,PF,,7,1.003,,,,,,,,,,,,,,,,,,,,,,,,,,,,,,,,,,41,72,1,0,0,response1disk,1,94,-4,5,1,0,0,rectangle,-4,5,1,0,0,0,5,"[31,126,263,13,25,212,64,44,124,64,72,3,81,317,283,28,107,13,93,68]",-4,5,1,0,0,0,93,93,57,1,,,,,,,,,,,,,,,,,,,,,,,
,,,,,,,,,,,,,,,,,,,,,,,,,,,,,,,,,,,,,,,,,,,5f6ad11391339f1b10bbea1f,5fe192c09bf07dbca1605368,2020-12-22_00h32.43.292,FlowerSimilarity_Experiment,2020.1.2,Win32,60,5fe17d4a51f3a9c1a60f9869,,,,,,,,,,,,,,,,,,,4,FF,,7,0.55,,,,,,,,,,,,,,,,,,,,,,,,,,,,,,,,,,28,86,1,0,0,response1disk,9,95,-7,2,1,0,0,rectangle,-7,2,1,0,0,0,0,"[31,126,263,13,25,212,64,44,124,64,72,3,81,317,283,28,107,13,93,68]",-7,2,1,0,0,0,94,94,90,1,,,,,,,,,,,,,,,,,,,,,,,
,,,,,,,,,,,,,,,,,,,,,,,,,,,,,,,,,,,,,,,,,,,5f6ad11391339f1b10bbea1f,5fe192c09bf07dbca1605368,2020-12-22_00h32.43.292,FlowerSimilarity_Experiment,2020.1.2,Win32,60,5fe17d4a51f3a9c1a60f9869,,,,,,,,,,,,,,,,,,,9,FF,,7,1.427,,,,,,,,,,,,,,,,,,,,,,,,,,,,,,,,,,38,67,1,0,0,response1disk,3,96,10,2,1,0,0,rectangle,10,2,1,0,0,0,3,"[31,126,263,13,25,212,64,44,124,64,72,3,81,317,283,28,107,13,93,68]",10,2,1,0,0,0,95,95,141,1,,,,,,,,,,,,,,,,,,,,,,,
,,,,,,,,,,,,,,,,,,,,,,,,,,,,,,,,,,,,,,,,,,,5f6ad11391339f1b10bbea1f,5fe192c09bf07dbca1605368,2020-12-22_00h32.43.292,FlowerSimilarity_Experiment,2020.1.2,Win32,60,5fe17d4a51f3a9c1a60f9869,,,,,,,,,,,,,,,,,,,8,FF,,0,0.903,,,,,,,,,,,,,,,,,,,,,,,,,,,,,,,,,,-32,75,1,0,0,response7disk,8,97,-3,-5,1,0,0,rectangle,-3,-5,1,0,0,0,1,"[31,126,263,13,25,212,64,44,124,64,72,3,81,317,283,28,107,13,93,68]",-3,-5,1,0,0,0,96,96,48,1,,,,,,,,,,,,,,,,,,,,,,,
,,,,,,,,,,,,,,,,,,,,,,,,,,,,,,,,,,,,,,,,,,,5f6ad11391339f1b10bbea1f,5fe192c09bf07dbca1605368,2020-12-22_00h32.43.292,FlowerSimilarity_Experiment,2020.1.2,Win32,60,5fe17d4a51f3a9c1a60f9869,,,,,,,,,,,,,,,,,,,8,FF,,7,0.65,,,,,,,,,,,,,,,,,,,,,,,,,,,,,,,,,,27,69,1,0,0,response1disk,4,98,-11,-7,1,0,0,rectangle,-11,-7,1,0,0,0,2,"[31,126,263,13,25,212,64,44,124,64,72,3,81,317,283,28,107,13,93,68]",-11,-7,1,0,0,0,97,97,88,1,,,,,,,,,,,,,,,,,,,,,,,
,,,,,,,,,,,,,,,,,,,,,,,,,,,,,,,,,,,,,,,,,,,5f6ad11391339f1b10bbea1f,5fe192c09bf07dbca1605368,2020-12-22_00h32.43.292,FlowerSimilarity_Experiment,2020.1.2,Win32,60,5fe17d4a51f3a9c1a60f9869,,,,,,,,,,,,,,,,,,,1,FF,,7,0.95,,,,,,,,,,,,,,,,,,,,,,,,,,,,,,,,,,37,54,1,0,0,response1disk,5,99,28,11,1,0,0,rectangle,28,11,1,0,0,0,6,"[31,126,263,13,25,212,64,44,124,64,72,3,81,317,283,28,107,13,93,68]",28,11,1,0,0,0,98,98,82,1,,,,,,,,,,,,,,,,,,,,,,,
,,,,,,,,,,,,,,,,,,,,,,,,,,,,,,,,,,,,,,,,,,,5f6ad11391339f1b10bbea1f,5fe192c09bf07dbca1605368,2020-12-22_00h32.43.292,FlowerSimilarity_Experiment,2020.1.2,Win32,60,5fe17d4a51f3a9c1a60f9869,,,,,,,,,,,,,,,,,,,4,PF,,7,0.7,,,,,,,,,,,,,,,,,,,,,,,,,,,,,,,,,,35,67,1,0,0,response1disk,6,100,14,-3,1,0,0,rectangle,14,-3,1,0,0,0,4,"[31,126,263,13,25,212,64,44,124,64,72,3,81,317,283,28,107,13,93,68]",14,-3,1,0,0,0,99,99,120,1,,,,,,,,,,,,,,,,,,,,,,,
,,,,,,,,,,,,,,,,,,,,,,,,,,,,,,,,,,,,,,,,,,,5f6ad11391339f1b10bbea1f,5fe192c09bf07dbca1605368,2020-12-22_00h32.43.292,FlowerSimilarity_Experiment,2020.1.2,Win32,60,5fe17d4a51f3a9c1a60f9869,,,,,,,,,,,,,,,,,,,9,FF,,7,0.777,,,,,,,,,,,,,,,,,,,,,,,,,,,,,,,,,,29,56,1,0,0,response1disk,7,101,14,0,1,0,0,rectangle,14,0,1,0,0,0,2,"[31,126,263,13,25,212,64,44,124,64,72,3,81,317,283,28,107,13,93,68]",14,0,1,0,0,0,100,100,100,1,,,,,,,,,,,,,,,,,,,,,,,
,,,,,,,,,,,,,,,,,,,,,,,,,,,,,,,,,,,,,,,,,,,5f6ad11391339f1b10bbea1f,5fe192c09bf07dbca1605368,2020-12-22_00h32.43.292,FlowerSimilarity_Experiment,2020.1.2,Win32,60,5fe17d4a51f3a9c1a60f9869,,,,,,,,,,,,,,,,,,,2,FF,,7,0.555,,,,,,,,,,,,,,,,,,,,,,,,,,,,,,,,,,50,68,1,0,0,response1disk,8,102,33,-5,1,0,0,rectangle,33,-5,1,0,0,0,7,"[31,126,263,13,25,212,64,44,124,64,72,3,81,317,283,28,107,13,93,68]",33,-5,1,0,0,0,101,101,62,1,,,,,,,,,,,,,,,,,,,,,,,
,,,,,,,,,,,,,,,,,,,,,,,,,,,,,,,,,,,,,,,,,,,5f6ad11391339f1b10bbea1f,5fe192c09bf07dbca1605368,2020-12-22_00h32.43.292,FlowerSimilarity_Experiment,2020.1.2,Win32,60,5fe17d4a51f3a9c1a60f9869,,,,,,,,,,,,,,,,,,,4,PF,,7,0.578,,,,,,,,,,,,,,,,,,,,,,,,,,,,,,,,,,51,88,1,0,0,response1disk,5,103,11,7,1,0,0,rectangle,11,7,1,0,0,0,3,"[31,126,263,13,25,212,64,44,124,64,72,3,81,317,283,28,107,13,93,68]",11,7,1,0,0,0,102,102,49,1,,,,,,,,,,,,,,,,,,,,,,,
,,,,,,,,,,,,,,,,,,,,,,,,,,,,,,,,,,,,,,,,,,,5f6ad11391339f1b10bbea1f,5fe192c09bf07dbca1605368,2020-12-22_00h32.43.292,FlowerSimilarity_Experiment,2020.1.2,Win32,60,5fe17d4a51f3a9c1a60f9869,,,,,,,,,,,,,,,,,,,9,FF,,7,0.528,,,,,,,,,,,,,,,,,,,,,,,,,,,,,,,,,,34,70,1,0,0,response1disk,8,104,23,0,1,0,0,rectangle,23,0,1,0,0,0,2,"[31,126,263,13,25,212,64,44,124,64,72,3,81,317,283,28,107,13,93,68]",23,0,1,0,0,0,103,103,6,1,,,,,,,,,,,,,,,,,,,,,,,
,,,,,,,,,,,,,,,,,,,,,,,,,,,,,,,,,,,,,,,,,,,5f6ad11391339f1b10bbea1f,5fe192c09bf07dbca1605368,2020-12-22_00h32.43.292,FlowerSimilarity_Experiment,2020.1.2,Win32,60,5fe17d4a51f3a9c1a60f9869,,,,,,,,,,,,,,,,,,,3,FF,,0,0.953,,,,,,,,,,,,,,,,,,,,,,,,,,,,,,,,,,-42,77,1,0,0,response7disk,7,105,-19,9,1,0,0,rectangle,-19,9,1,0,0,0,3,"[31,126,263,13,25,212,64,44,124,64,72,3,81,317,283,28,107,13,93,68]",-19,9,1,0,0,0,104,104,118,1,,,,,,,,,,,,,,,,,,,,,,,
,,,,,,,,,,,,,,,,,,,,,,,,,,,,,,,,,,,,,,,,,,,5f6ad11391339f1b10bbea1f,5fe192c09bf07dbca1605368,2020-12-22_00h32.43.292,FlowerSimilarity_Experiment,2020.1.2,Win32,60,5fe17d4a51f3a9c1a60f9869,,,,,,,,,,,,,,,,,,,7,PF,,7,0.578,,,,,,,,,,,,,,,,,,,,,,,,,,,,,,,,,,36,74,1,0,0,response1disk,1,106,13,-4,1,0,0,rectangle,13,-4,1,0,0,0,2,"[31,126,263,13,25,212,64,44,124,64,72,3,81,317,283,28,107,13,93,68]",13,-4,1,0,0,0,105,105,53,1,,,,,,,,,,,,,,,,,,,,,,,
,,,,,,,,,,,,,,,,,,,,,,,,,,,,,,,,,,,,,,,,,,,5f6ad11391339f1b10bbea1f,5fe192c09bf07dbca1605368,2020-12-22_00h32.43.292,FlowerSimilarity_Experiment,2020.1.2,Win32,60,5fe17d4a51f3a9c1a60f9869,,,,,,,,,,,,,,,,,,,7,FF,,7,1.353,,,,,,,,,,,,,,,,,,,,,,,,,,,,,,,,,,29,56,1,0,0,response1disk,6,107,-4,-7,1,0,0,rectangle,91,-42,1,0,0,5,5,"[31,126,263,13,25,212,64,44,124,64,72,3,81,317,283,28,107,13,93,68]",6,-15,1,0,0,0,106,106,31,1,response3disk_3,rectangle,,,,,,,,,,,,,,,,,,,,,
,,,,,,,,,,,,,,,,,,,,,,,,,,,,,,,,,,,,,,,,,,,5f6ad11391339f1b10bbea1f,5fe192c09bf07dbca1605368,2020-12-22_00h32.43.292,FlowerSimilarity_Experiment,2020.1.2,Win32,60,5fe17d4a51f3a9c1a60f9869,,,,,,,,,,,,,,,,,,,5,FF,,7,0.901,,,,,,,,,,,,,,,,,,,,,,,,,,,,,,,,,,45,80,1,0,0,response1disk,4,108,24,6,1,0,0,rectangle,24,6,1,0,0,5,3,"[31,126,263,13,25,212,64,44,124,64,72,3,81,317,283,28,107,13,93,68]",24,6,1,0,0,0,107,107,8,1,,,,,,,,,,,,,,,,,,,,,,,
,,,,,,,,,,,,,,,,,,,,,,,,,,,,,,,,,,,,,,,,,,,5f6ad11391339f1b10bbea1f,5fe192c09bf07dbca1605368,2020-12-22_00h32.43.292,FlowerSimilarity_Experiment,2020.1.2,Win32,60,5fe17d4a51f3a9c1a60f9869,,,,,,,,,,,,,,,,,,,4,FF,,3,1.53,,,,,,,,,,,,,,,,,,,,,,,,,,,,,,,,,,-45,-84,1,0,0,response5disk,3,109,7,8,1,0,0,rectangle,7,8,1,0,0,5,6,"[31,126,263,13,25,212,64,44,124,64,72,3,81,317,283,28,107,13,93,68]",7,8,1,0,0,0,108,108,77,1,,,,,,,,,,,,,,,,,,,,,,,
,,,,,,,,,,,,,,,,,,,,,,,,,,,,,,,,,,,,,,,,,,,5f6ad11391339f1b10bbea1f,5fe192c09bf07dbca1605368,2020-12-22_00h32.43.292,FlowerSimilarity_Experiment,2020.1.2,Win32,60,5fe17d4a51f3a9c1a60f9869,,,,,,,,,,,,,,,,,,,9,PF,,7,0.902,,,,,,,,,,,,,,,,,,,,,,,,,,,,,,,,,,22,62,1,0,0,response1disk,4,110,5,-12,1,0,0,rectangle,5,-12,1,0,0,5,1,"[31,126,263,13,25,212,64,44,124,64,72,3,81,317,283,28,107,13,93,68]",5,-12,1,0,0,0,109,109,114,1,,,,,,,,,,,,,,,,,,,,,,,
,,,,,,,,,,,,,,,,,,,,,,,,,,,,,,,,,,,,,,,,,,,5f6ad11391339f1b10bbea1f,5fe192c09bf07dbca1605368,2020-12-22_00h32.43.292,FlowerSimilarity_Experiment,2020.1.2,Win32,60,5fe17d4a51f3a9c1a60f9869,,,,,,,,,,,,,,,,,,,2,FF,,7,0.526,,,,,,,,,,,,,,,,,,,,,,,,,,,,,,,,,,29,68,1,0,0,response1disk,9,111,-5,-7,1,0,0,rectangle,-5,-7,1,0,0,5,7,"[31,126,263,13,25,212,64,44,124,64,72,3,81,317,283,28,107,13,93,68]",-5,-7,1,0,0,0,110,110,72,1,,,,,,,,,,,,,,,,,,,,,,,
,,,,,,,,,,,,,,,,,,,,,,,,,,,,,,,,,,,,,,,,,,,5f6ad11391339f1b10bbea1f,5fe192c09bf07dbca1605368,2020-12-22_00h32.43.292,FlowerSimilarity_Experiment,2020.1.2,Win32,60,5fe17d4a51f3a9c1a60f9869,,,,,,,,,,,,,,,,,,,4,FF,,0,0.875,,,,,,,,,,,,,,,,,,,,,,,,,,,,,,,,,,-28,73,1,0,0,response7disk,4,112,18,8,1,0,0,rectangle,18,8,1,0,0,5,2,"[31,126,263,13,25,212,64,44,124,64,72,3,81,317,283,28,107,13,93,68]",18,8,1,0,0,0,111,111,84,1,,,,,,,,,,,,,,,,,,,,,,,
,,,,,,,,,,,,,,,,,,,,,,,,,,,,,,,,,,,,,,,,,,,5f6ad11391339f1b10bbea1f,5fe192c09bf07dbca1605368,2020-12-22_00h32.43.292,FlowerSimilarity_Experiment,2020.1.2,Win32,60,5fe17d4a51f3a9c1a60f9869,,,,,,,,,,,,,,,,,,,9,PF,,0,0.772,,,,,,,,,,,,,,,,,,,,,,,,,,,,,,,,,,-29,87,1,0,0,response7disk,9,113,-3,1,1,0,0,rectangle,-3,1,1,0,0,5,6,"[31,126,263,13,25,212,64,44,124,64,72,3,81,317,283,28,107,13,93,68]",-3,1,1,0,0,0,112,112,106,1,,,,,,,,,,,,,,,,,,,,,,,
,,,,,,,,,,,,,,,,,,,,,,,,,,,,,,,,,,,,,,,,,,,5f6ad11391339f1b10bbea1f,5fe192c09bf07dbca1605368,2020-12-22_00h32.43.292,FlowerSimilarity_Experiment,2020.1.2,Win32,60,5fe17d4a51f3a9c1a60f9869,,,,,,,,,,,,,,,,,,,6,PF,,7,1.228,,,,,,,,,,,,,,,,,,,,,,,,,,,,,,,,,,50,78,1,0,0,response1disk,4,114,16,-12,1,0,0,rectangle,16,-12,1,0,0,5,0,"[31,126,263,13,25,212,64,44,124,64,72,3,81,317,283,28,107,13,93,68]",16,-12,1,0,0,0,113,113,33,1,,,,,,,,,,,,,,,,,,,,,,,
,,,,,,,,,,,,,,,,,,,,,,,,,,,,,,,,,,,,,,,,,,,5f6ad11391339f1b10bbea1f,5fe192c09bf07dbca1605368,2020-12-22_00h32.43.292,FlowerSimilarity_Experiment,2020.1.2,Win32,60,5fe17d4a51f3a9c1a60f9869,,,,,,,,,,,,,,,,,,,6,PF,,2,1.456,,,,,,,,,,,,,,,,,,,,,,,,,,,,,,,,,,-59,-27,1,0,0,response5disk,6,115,-3,6,1,0,0,rectangle,-3,6,1,0,0,5,7,"[31,126,263,13,25,212,64,44,124,64,72,3,81,317,283,28,107,13,93,68]",-3,6,1,0,0,0,114,114,0,1,,,,,,,,,,,,,,,,,,,,,,,
,,,,,,,,,,,,,,,,,,,,,,,,,,,,,,,,,,,,,,,,,,,5f6ad11391339f1b10bbea1f,5fe192c09bf07dbca1605368,2020-12-22_00h32.43.292,FlowerSimilarity_Experiment,2020.1.2,Win32,60,5fe17d4a51f3a9c1a60f9869,,,,,,,,,,,,,,,,,,,4,PF,,4,1.58,,,,,,,,,,,,,,,,,,,,,,,,,,,,,,,,,,32,-77,1,0,0,response3disk,3,116,22,-1,1,0,0,rectangle,22,-1,1,0,0,5,7,"[31,126,263,13,25,212,64,44,124,64,72,3,81,317,283,28,107,13,93,68]",22,-1,1,0,0,0,115,115,89,1,,,,,,,,,,,,,,,,,,,,,,,
,,,,,,,,,,,,,,,,,,,,,,,,,,,,,,,,,,,,,,,,,,,5f6ad11391339f1b10bbea1f,5fe192c09bf07dbca1605368,2020-12-22_00h32.43.292,FlowerSimilarity_Experiment,2020.1.2,Win32,60,5fe17d4a51f3a9c1a60f9869,,,,,,,,,,,,,,,,,,,6,FF,,7,1.279,,,,,,,,,,,,,,,,,,,,,,,,,,,,,,,,,,38,73,1,0,0,response1disk,8,117,12,2,1,0,0,rectangle,12,2,1,0,0,5,7,"[31,126,263,13,25,212,64,44,124,64,72,3,81,317,283,28,107,13,93,68]",12,2,1,0,0,0,116,116,133,1,,,,,,,,,,,,,,,,,,,,,,,
,,,,,,,,,,,,,,,,,,,,,,,,,,,,,,,,,,,,,,,,,,,5f6ad11391339f1b10bbea1f,5fe192c09bf07dbca1605368,2020-12-22_00h32.43.292,FlowerSimilarity_Experiment,2020.1.2,Win32,60,5fe17d4a51f3a9c1a60f9869,,,,,,,,,,,,,,,,,,,5,PF,,7,0.907,,,,,,,,,,,,,,,,,,,,,,,,,,,,,,,,,,16,61,1,0,0,response1disk,1,118,0,-1,1,0,0,rectangle,0,-1,1,0,0,5,7,"[31,126,263,13,25,212,64,44,124,64,72,3,81,317,283,28,107,13,93,68]",0,-1,1,0,0,0,117,117,159,1,,,,,,,,,,,,,,,,,,,,,,,
,,,,,,,,,,,,,,,,,,,,,,,,,,,,,,,,,,,,,,,,,,,5f6ad11391339f1b10bbea1f,5fe192c09bf07dbca1605368,2020-12-22_00h32.43.292,FlowerSimilarity_Experiment,2020.1.2,Win32,60,5fe17d4a51f3a9c1a60f9869,,,,,,,,,,,,,,,,,,,7,FF,,0,0.854,,,,,,,,,,,,,,,,,,,,,,,,,,,,,,,,,,-28,80,1,0,0,response7disk,7,119,-9,8,1,0,0,rectangle,-9,8,1,0,0,5,0,"[31,126,263,13,25,212,64,44,124,64,72,3,81,317,283,28,107,13,93,68]",-9,8,1,0,0,0,118,118,34,1,,,,,,,,,,,,,,,,,,,,,,,
,,,,,,,,,,,,,,,,,,,,,,,,,,,,,,,,,,,,,,,,,,,5f6ad11391339f1b10bbea1f,5fe192c09bf07dbca1605368,2020-12-22_00h32.43.292,FlowerSimilarity_Experiment,2020.1.2,Win32,60,5fe17d4a51f3a9c1a60f9869,,,,,,,,,,,,,,,,,,,5,PF,,5,1.068,,,,,,,,,,,,,,,,,,,,,,,,,,,,,,,,,,59,-32,1,0,0,response3disk,3,120,13,-2,1,0,0,rectangle,13,-2,1,0,0,5,4,"[31,126,263,13,25,212,64,44,124,64,72,3,81,317,283,28,107,13,93,68]",13,-2,1,0,0,0,119,119,109,1,,,,,,,,,,,,,,,,,,,,,,,
,,,,,,,,,,,,,,,,,,,,,,,,,,,,,,,,,,,,,,,,,,,5f6ad11391339f1b10bbea1f,5fe192c09bf07dbca1605368,2020-12-22_00h32.43.292,FlowerSimilarity_Experiment,2020.1.2,Win32,60,5fe17d4a51f3a9c1a60f9869,,,,,,,,,,,,,,,,,,,6,FF,,7,1.026,,,,,,,,,,,,,,,,,,,,,,,,,,,,,,,,,,31,56,1,0,0,response1disk,9,121,-4,8,1,0,0,rectangle,-4,8,1,0,0,5,4,"[31,126,263,13,25,212,64,44,124,64,72,3,81,317,283,28,107,13,93,68]",-4,8,1,0,0,0,120,120,160,1,,,,,,,,,,,,,,,,,,,,,,,
,,,,,,,,,,,,,,,,,,,,,,,,,,,,,,,,,,,,,,,,,,,5f6ad11391339f1b10bbea1f,5fe192c09bf07dbca1605368,2020-12-22_00h32.43.292,FlowerSimilarity_Experiment,2020.1.2,Win32,60,5fe17d4a51f3a9c1a60f9869,,,,,,,,,,,,,,,,,,,1,FF,,0,0.489,,,,,,,,,,,,,,,,,,,,,,,,,,,,,,,,,,-32,82,1,0,0,response7disk,4,122,14,2,1,0,0,rectangle,14,2,1,0,0,5,6,"[31,126,263,13,25,212,64,44,124,64,72,3,81,317,283,28,107,13,93,68]",14,2,1,0,0,0,121,121,135,1,,,,,,,,,,,,,,,,,,,,,,,
,,,,,,,,,,,,,,,,,,,,,,,,,,,,,,,,,,,,,,,,,,,5f6ad11391339f1b10bbea1f,5fe192c09bf07dbca1605368,2020-12-22_00h32.43.292,FlowerSimilarity_Experiment,2020.1.2,Win32,60,5fe17d4a51f3a9c1a60f9869,,,,,,,,,,,,,,,,,,,7,PF,,7,0.828,,,,,,,,,,,,,,,,,,,,,,,,,,,,,,,,,,33,56,1,0,0,response1disk,4,123,13,4,1,0,0,rectangle,13,4,1,0,0,5,7,"[31,126,263,13,25,212,64,44,124,64,72,3,81,317,283,28,107,13,93,68]",13,4,1,0,0,0,122,122,43,1,,,,,,,,,,,,,,,,,,,,,,,
,,,,,,,,,,,,,,,,,,,,,,,,,,,,,,,,,,,,,,,,,,,5f6ad11391339f1b10bbea1f,5fe192c09bf07dbca1605368,2020-12-22_00h32.43.292,FlowerSimilarity_Experiment,2020.1.2,Win32,60,5fe17d4a51f3a9c1a60f9869,,,,,,,,,,,,,,,,,,,3,FF,,7,0.9,,,,,,,,,,,,,,,,,,,,,,,,,,,,,,,,,,32,67,1,0,0,response1disk,2,124,5,1,1,0,0,rectangle,-30,-65,1,0,0,3,3,"[31,126,263,13,25,212,64,44,124,64,72,3,81,317,283,28,107,13,93,68]",14,4,1,0,0,0,123,123,93,1,response5disk_3,rectangle,,,,,,,,,,,,,,,,,,,,,
,,,,,,,,,,,,,,,,,,,,,,,,,,,,,,,,,,,,,,,,,,,5f6ad11391339f1b10bbea1f,5fe192c09bf07dbca1605368,2020-12-22_00h32.43.292,FlowerSimilarity_Experiment,2020.1.2,Win32,60,5fe17d4a51f3a9c1a60f9869,,,,,,,,,,,,,,,,,,,6,PF,,4,0.927,,,,,,,,,,,,,,,,,,,,,,,,,,,,,,,,,,28,-72,1,0,0,response3disk,3,125,-3,2,1,0,0,rectangle,-3,2,1,0,0,3,7,"[31,126,263,13,25,212,64,44,124,64,72,3,81,317,283,28,107,13,93,68]",-3,2,1,0,0,0,124,124,26,1,,,,,,,,,,,,,,,,,,,,,,,
,,,,,,,,,,,,,,,,,,,,,,,,,,,,,,,,,,,,,,,,,,,5f6ad11391339f1b10bbea1f,5fe192c09bf07dbca1605368,2020-12-22_00h32.43.292,FlowerSimilarity_Experiment,2020.1.2,Win32,60,5fe17d4a51f3a9c1a60f9869,,,,,,,,,,,,,,,,,,,3,PF,,0,0.878,,,,,,,,,,,,,,,,,,,,,,,,,,,,,,,,,,-45,75,1,0,0,response7disk,3,126,-11,-2,1,0,0,rectangle,104,-45,1,0,0,5,5,"[31,126,263,13,25,212,64,44,124,64,72,3,81,317,283,28,107,13,93,68]",1,4,1,0,0,0,125,125,4,1,response3disk_3,rectangle,,,,,,,,,,,,,,,,,,,,,
,,,,,,,,,,,,,,,,,,,,,,,,,,,,,,,,,,,,,,,,,,,5f6ad11391339f1b10bbea1f,5fe192c09bf07dbca1605368,2020-12-22_00h32.43.292,FlowerSimilarity_Experiment,2020.1.2,Win32,60,5fe17d4a51f3a9c1a60f9869,,,,,,,,,,,,,,,,,,,5,PF,,5,5.255,,,,,,,,,,,,,,,,,,,,,,,,,,,,,,,,,,78,-47,1,0,0,response3disk,4,127,4,-3,1,0,0,rectangle,4,-3,1,0,0,5,2,"[31,126,263,13,25,212,64,44,124,64,72,3,81,317,283,28,107,13,93,68]",4,-3,1,0,0,0,126,126,54,1,,,,,,,,,,,,,,,,,,,,,,,
,,,,,,,,,,,,,,,,,,,,,,,,,,,,,,,,,,,,,,,,,,,5f6ad11391339f1b10bbea1f,5fe192c09bf07dbca1605368,2020-12-22_00h32.43.292,FlowerSimilarity_Experiment,2020.1.2,Win32,60,5fe17d4a51f3a9c1a60f9869,,,,,,,,,,,,,,,,,,,4,PF,,0,0.847,,,,,,,,,,,,,,,,,,,,,,,,,,,,,,,,,,-36,100,1,0,0,response7disk,4,128,2,10,1,0,0,rectangle,2,10,1,0,0,5,6,"[31,126,263,13,25,212,64,44,124,64,72,3,81,317,283,28,107,13,93,68]",2,10,1,0,0,0,127,127,70,1,,,,,,,,,,,,,,,,,,,,,,,
,,,,,,,,,,,,,,,,,,,,,,,,,,,,,,,,,,,,,,,,,,,5f6ad11391339f1b10bbea1f,5fe192c09bf07dbca1605368,2020-12-22_00h32.43.292,FlowerSimilarity_Experiment,2020.1.2,Win32,60,5fe17d4a51f3a9c1a60f9869,,,,,,,,,,,,,,,,,,,2,FF,,6,0.955,,,,,,,,,,,,,,,,,,,,,,,,,,,,,,,,,,66,18,1,0,0,response1disk,3,129,34,-2,1,0,0,rectangle,34,-2,1,0,0,5,1,"[31,126,263,13,25,212,64,44,124,64,72,3,81,317,283,28,107,13,93,68]",34,-2,1,0,0,0,128,128,104,1,,,,,,,,,,,,,,,,,,,,,,,
,,,,,,,,,,,,,,,,,,,,,,,,,,,,,,,,,,,,,,,,,,,5f6ad11391339f1b10bbea1f,5fe192c09bf07dbca1605368,2020-12-22_00h32.43.292,FlowerSimilarity_Experiment,2020.1.2,Win32,60,5fe17d4a51f3a9c1a60f9869,,,,,,,,,,,,,,,,,,,4,FF,,6,2.413,,,,,,,,,,,,,,,,,,,,,,,,,,,,,,,,,,101,58,1,0,0,response1disk,2,130,7,13,1,0,0,rectangle,7,13,1,0,0,5,1,"[31,126,263,13,25,212,64,44,124,64,72,3,81,317,283,28,107,13,93,68]",7,13,1,0,0,0,129,129,13,1,,,,,,,,,,,,,,,,,,,,,,,
,,,,,,,,,,,,,,,,,,,,,,,,,,,,,,,,,,,,,,,,,,,5f6ad11391339f1b10bbea1f,5fe192c09bf07dbca1605368,2020-12-22_00h32.43.292,FlowerSimilarity_Experiment,2020.1.2,Win32,60,5fe17d4a51f3a9c1a60f9869,,,,,,,,,,,,,,,,,,,6,FF,,6,0.8,,,,,,,,,,,,,,,,,,,,,,,,,,,,,,,,,,90,36,1,0,0,response1disk,4,131,22,0,1,0,0,rectangle,22,0,1,0,0,5,3,"[31,126,263,13,25,212,64,44,124,64,72,3,81,317,283,28,107,13,93,68]",22,0,1,0,0,0,130,130,56,1,,,,,,,,,,,,,,,,,,,,,,,
,,,,,,,,,,,,,,,,,,,,,,,,,,,,,,,,,,,,,,,,,,,5f6ad11391339f1b10bbea1f,5fe192c09bf07dbca1605368,2020-12-22_00h32.43.292,FlowerSimilarity_Experiment,2020.1.2,Win32,60,5fe17d4a51f3a9c1a60f9869,,,,,,,,,,,,,,,,,,,6,FF,,6,0.68,,,,,,,,,,,,,,,,,,,,,,,,,,,,,,,,,,70,36,1,0,0,response1disk,3,132,3,11,1,0,0,rectangle,3,11,1,0,0,5,0,"[31,126,263,13,25,212,64,44,124,64,72,3,81,317,283,28,107,13,93,68]",3,11,1,0,0,0,131,131,21,1,,,,,,,,,,,,,,,,,,,,,,,
,,,,,,,,,,,,,,,,,,,,,,,,,,,,,,,,,,,,,,,,,,,5f6ad11391339f1b10bbea1f,5fe192c09bf07dbca1605368,2020-12-22_00h32.43.292,FlowerSimilarity_Experiment,2020.1.2,Win32,60,5fe17d4a51f3a9c1a60f9869,,,,,,,,,,,,,,,,,,,8,PF,,6,1.492,,,,,,,,,,,,,,,,,,,,,,,,,,,,,,,,,,75,39,1,0,0,response1disk,5,133,6,-10,1,0,0,rectangle,6,-10,1,0,0,5,6,"[31,126,263,13,25,212,64,44,124,64,72,3,81,317,283,28,107,13,93,68]",6,-10,1,0,0,0,132,132,98,1,,,,,,,,,,,,,,,,,,,,,,,
,,,,,,,,,,,,,,,,,,,,,,,,,,,,,,,,,,,,,,,,,,,5f6ad11391339f1b10bbea1f,5fe192c09bf07dbca1605368,2020-12-22_00h32.43.292,FlowerSimilarity_Experiment,2020.1.2,Win32,60,5fe17d4a51f3a9c1a60f9869,,,,,,,,,,,,,,,,,,,2,FF,,6,3.183,,,,,,,,,,,,,,,,,,,,,,,,,,,,,,,,,,89,33,1,0,0,response1disk,4,134,12,3,1,0,0,rectangle,12,3,1,0,0,5,0,"[31,126,263,13,25,212,64,44,124,64,72,3,81,317,283,28,107,13,93,68]",12,3,1,0,0,0,133,133,145,1,,,,,,,,,,,,,,,,,,,,,,,
,,,,,,,,,,,,,,,,,,,,,,,,,,,,,,,,,,,,,,,,,,,5f6ad11391339f1b10bbea1f,5fe192c09bf07dbca1605368,2020-12-22_00h32.43.292,FlowerSimilarity_Experiment,2020.1.2,Win32,60,5fe17d4a51f3a9c1a60f9869,,,,,,,,,,,,,,,,,,,6,FF,,0,1.059,,,,,,,,,,,,,,,,,,,,,,,,,,,,,,,,,,-21,84,1,0,0,response7disk,6,135,-8,-1,1,0,0,rectangle,-8,-1,1,0,0,5,3,"[31,126,263,13,25,212,64,44,124,64,72,3,81,317,283,28,107,13,93,68]",-8,-1,1,0,0,0,134,134,91,1,,,,,,,,,,,,,,,,,,,,,,,
,,,,,,,,,,,,,,,,,,,,,,,,,,,,,,,,,,,,,,,,,,,5f6ad11391339f1b10bbea1f,5fe192c09bf07dbca1605368,2020-12-22_00h32.43.292,FlowerSimilarity_Experiment,2020.1.2,Win32,60,5fe17d4a51f3a9c1a60f9869,,,,,,,,,,,,,,,,,,,2,FF,,6,0.806,,,,,,,,,,,,,,,,,,,,,,,,,,,,,,,,,,47,45,1,0,0,response1disk,1,136,12,1,1,0,0,rectangle,12,1,1,0,0,5,3,"[31,126,263,13,25,212,64,44,124,64,72,3,81,317,283,28,107,13,93,68]",12,1,1,0,0,0,135,135,85,1,,,,,,,,,,,,,,,,,,,,,,,
,,,,,,,,,,,,,,,,,,,,,,,,,,,,,,,,,,,,,,,,,,,5f6ad11391339f1b10bbea1f,5fe192c09bf07dbca1605368,2020-12-22_00h32.43.292,FlowerSimilarity_Experiment,2020.1.2,Win32,60,5fe17d4a51f3a9c1a60f9869,,,,,,,,,,,,,,,,,,,8,PF,,6,0.9,,,,,,,,,,,,,,,,,,,,,,,,,,,,,,,,,,96,37,1,0,0,response1disk,3,137,2,1,1,0,0,rectangle,2,1,1,0,0,5,4,"[31,126,263,13,25,212,64,44,124,64,72,3,81,317,283,28,107,13,93,68]",2,1,1,0,0,0,136,136,71,1,,,,,,,,,,,,,,,,,,,,,,,
,,,,,,,,,,,,,,,,,,,,,,,,,,,,,,,,,,,,,,,,,,,5f6ad11391339f1b10bbea1f,5fe192c09bf07dbca1605368,2020-12-22_00h32.43.292,FlowerSimilarity_Experiment,2020.1.2,Win32,60,5fe17d4a51f3a9c1a60f9869,,,,,,,,,,,,,,,,,,,8,PF,,6,0.84,,,,,,,,,,,,,,,,,,,,,,,,,,,,,,,,,,84,45,1,0,0,response1disk,7,138,4,1,1,0,0,rectangle,4,1,1,0,0,5,5,"[31,126,263,13,25,212,64,44,124,64,72,3,81,317,283,28,107,13,93,68]",4,1,1,0,0,0,137,137,23,1,,,,,,,,,,,,,,,,,,,,,,,
,,,,,,,,,,,,,,,,,,,,,,,,,,,,,,,,,,,,,,,,,,,5f6ad11391339f1b10bbea1f,5fe192c09bf07dbca1605368,2020-12-22_00h32.43.292,FlowerSimilarity_Experiment,2020.1.2,Win32,60,5fe17d4a51f3a9c1a60f9869,,,,,,,,,,,,,,,,,,,3,FF,,6,0.725,,,,,,,,,,,,,,,,,,,,,,,,,,,,,,,,,,76,29,1,0,0,response1disk,1,139,1,-3,1,0,0,rectangle,1,-3,1,0,0,5,4,"[31,126,263,13,25,212,64,44,124,64,72,3,81,317,283,28,107,13,93,68]",1,-3,1,0,0,0,138,138,125,1,,,,,,,,,,,,,,,,,,,,,,,
,,,,,,,,,,,,,,,,,,,,,,,,,,,,,,,,,,,,,,,,,,,5f6ad11391339f1b10bbea1f,5fe192c09bf07dbca1605368,2020-12-22_00h32.43.292,FlowerSimilarity_Experiment,2020.1.2,Win32,60,5fe17d4a51f3a9c1a60f9869,,,,,,,,,,,,,,,,,,,9,FF,,6,1.463,,,,,,,,,,,,,,,,,,,,,,,,,,,,,,,,,,70,34,1,0,0,response1disk,6,140,17,2,1,0,0,rectangle,17,2,1,0,0,5,1,"[31,126,263,13,25,212,64,44,124,64,72,3,81,317,283,28,107,13,93,68]",17,2,1,0,0,0,139,139,117,1,,,,,,,,,,,,,,,,,,,,,,,
,,,,,,,,,,,,,,,,,,,,,,,,,,,,,,,,,,,,,,,,,,,5f6ad11391339f1b10bbea1f,5fe192c09bf07dbca1605368,2020-12-22_00h32.43.292,FlowerSimilarity_Experiment,2020.1.2,Win32,60,5fe17d4a51f3a9c1a60f9869,,,,,,,,,,,,,,,,,,,5,PF,,6,0.927,,,,,,,,,,,,,,,,,,,,,,,,,,,,,,,,,,84,43,1,0,0,response1disk,7,141,5,-4,1,0,0,rectangle,5,-4,1,0,0,5,6,"[31,126,263,13,25,212,64,44,124,64,72,3,81,317,283,28,107,13,93,68]",5,-4,1,0,0,0,140,140,146,1,,,,,,,,,,,,,,,,,,,,,,,
,,,,,,,,,,,,,,,,,,,,,,,,,,,,,,,,,,,,,,,,,,,5f6ad11391339f1b10bbea1f,5fe192c09bf07dbca1605368,2020-12-22_00h32.43.292,FlowerSimilarity_Experiment,2020.1.2,Win32,60,5fe17d4a51f3a9c1a60f9869,,,,,,,,,,,,,,,,,,,9,PF,,6,0.946,,,,,,,,,,,,,,,,,,,,,,,,,,,,,,,,,,83,39,1,0,0,response1disk,8,142,17,9,1,0,0,rectangle,17,9,1,0,0,5,0,"[31,126,263,13,25,212,64,44,124,64,72,3,81,317,283,28,107,13,93,68]",17,9,1,0,0,0,141,141,67,1,,,,,,,,,,,,,,,,,,,,,,,
,,,,,,,,,,,,,,,,,,,,,,,,,,,,,,,,,,,,,,,,,,,5f6ad11391339f1b10bbea1f,5fe192c09bf07dbca1605368,2020-12-22_00h32.43.292,FlowerSimilarity_Experiment,2020.1.2,Win32,60,5fe17d4a51f3a9c1a60f9869,,,,,,,,,,,,,,,,,,,6,FF,,7,0.576,,,,,,,,,,,,,,,,,,,,,,,,,,,,,,,,,,49,89,1,0,0,response1disk,5,143,20,10,1,0,0,rectangle,20,10,1,0,0,5,5,"[31,126,263,13,25,212,64,44,124,64,72,3,81,317,283,28,107,13,93,68]",20,10,1,0,0,0,142,142,126,1,,,,,,,,,,,,,,,,,,,,,,,
,,,,,,,,,,,,,,,,,,,,,,,,,,,,,,,,,,,,,,,,,,,5f6ad11391339f1b10bbea1f,5fe192c09bf07dbca1605368,2020-12-22_00h32.43.292,FlowerSimilarity_Experiment,2020.1.2,Win32,60,5fe17d4a51f3a9c1a60f9869,,,,,,,,,,,,,,,,,,,8,FF,,7,0.751,,,,,,,,,,,,,,,,,,,,,,,,,,,,,,,,,,42,80,1,0,0,response1disk,6,144,25,9,1,0,0,rectangle,25,9,1,0,0,5,5,"[31,126,263,13,25,212,64,44,124,64,72,3,81,317,283,28,107,13,93,68]",25,9,1,0,0,0,143,143,37,1,,,,,,,,,,,,,,,,,,,,,,,
,,,,,,,,,,,,,,,,,,,,,,,,,,,,,,,,,,,,,,,,,,,5f6ad11391339f1b10bbea1f,5fe192c09bf07dbca1605368,2020-12-22_00h32.43.292,FlowerSimilarity_Experiment,2020.1.2,Win32,60,5fe17d4a51f3a9c1a60f9869,,,,,,,,,,,,,,,,,,,6,FF,,7,0.599,,,,,,,,,,,,,,,,,,,,,,,,,,,,,,,,,,42,66,1,0,0,response1disk,2,145,20,2,1,0,0,rectangle,20,2,1,0,0,5,4,"[31,126,263,13,25,212,64,44,124,64,72,3,81,317,283,28,107,13,93,68]",20,2,1,0,0,0,144,144,112,1,,,,,,,,,,,,,,,,,,,,,,,
,,,,,,,,,,,,,,,,,,,,,,,,,,,,,,,,,,,,,,,,,,,5f6ad11391339f1b10bbea1f,5fe192c09bf07dbca1605368,2020-12-22_00h32.43.292,FlowerSimilarity_Experiment,2020.1.2,Win32,60,5fe17d4a51f3a9c1a60f9869,,,,,,,,,,,,,,,,,,,9,FF,,7,0.764,,,,,,,,,,,,,,,,,,,,,,,,,,,,,,,,,,52,74,1,0,0,response1disk,5,146,12,-2,1,0,0,rectangle,12,-2,1,0,0,5,1,"[31,126,263,13,25,212,64,44,124,64,72,3,81,317,283,28,107,13,93,68]",12,-2,1,0,0,0,145,145,128,1,,,,,,,,,,,,,,,,,,,,,,,
,,,,,,,,,,,,,,,,,,,,,,,,,,,,,,,,,,,,,,,,,,,5f6ad11391339f1b10bbea1f,5fe192c09bf07dbca1605368,2020-12-22_00h32.43.292,FlowerSimilarity_Experiment,2020.1.2,Win32,60,5fe17d4a51f3a9c1a60f9869,,,,,,,,,,,,,,,,,,,9,PF,,7,0.875,,,,,,,,,,,,,,,,,,,,,,,,,,,,,,,,,,43,79,1,0,0,response1disk,7,147,13,7,1,0,0,rectangle,13,7,1,0,0,5,4,"[31,126,263,13,25,212,64,44,124,64,72,3,81,317,283,28,107,13,93,68]",13,7,1,0,0,0,146,146,121,1,,,,,,,,,,,,,,,,,,,,,,,
,,,,,,,,,,,,,,,,,,,,,,,,,,,,,,,,,,,,,,,,,,,5f6ad11391339f1b10bbea1f,5fe192c09bf07dbca1605368,2020-12-22_00h32.43.292,FlowerSimilarity_Experiment,2020.1.2,Win32,60,5fe17d4a51f3a9c1a60f9869,,,,,,,,,,,,,,,,,,,8,FF,,7,1.458,,,,,,,,,,,,,,,,,,,,,,,,,,,,,,,,,,38,62,1,0,0,response1disk,7,148,19,10,1,0,0,rectangle,19,10,1,0,0,5,0,"[31,126,263,13,25,212,64,44,124,64,72,3,81,317,283,28,107,13,93,68]",19,10,1,0,0,0,147,147,86,1,,,,,,,,,,,,,,,,,,,,,,,
,,,,,,,,,,,,,,,,,,,,,,,,,,,,,,,,,,,,,,,,,,,5f6ad11391339f1b10bbea1f,5fe192c09bf07dbca1605368,2020-12-22_00h32.43.292,FlowerSimilarity_Experiment,2020.1.2,Win32,60,5fe17d4a51f3a9c1a60f9869,,,,,,,,,,,,,,,,,,,6,FF,,7,0.828,,,,,,,,,,,,,,,,,,,,,,,,,,,,,,,,,,33,67,1,0,0,response1disk,7,149,8,5,1,0,0,rectangle,8,5,1,0,0,5,4,"[31,126,263,13,25,212,64,44,124,64,72,3,81,317,283,28,107,13,93,68]",8,5,1,0,0,0,148,148,18,1,,,,,,,,,,,,,,,,,,,,,,,
,,,,,,,,,,,,,,,,,,,,,,,,,,,,,,,,,,,,,,,,,,,5f6ad11391339f1b10bbea1f,5fe192c09bf07dbca1605368,2020-12-22_00h32.43.292,FlowerSimilarity_Experiment,2020.1.2,Win32,60,5fe17d4a51f3a9c1a60f9869,,,,,,,,,,,,,,,,,,,1,PF,,7,1.272,,,,,,,,,,,,,,,,,,,,,,,,,,,,,,,,,,49,73,1,0,0,response1disk,4,150,24,-8,1,0,0,rectangle,24,-8,1,0,0,5,1,"[31,126,263,13,25,212,64,44,124,64,72,3,81,317,283,28,107,13,93,68]",24,-8,1,0,0,0,149,149,139,1,,,,,,,,,,,,,,,,,,,,,,,
,,,,,,,,,,,,,,,,,,,,,,,,,,,,,,,,,,,,,,,,,,,5f6ad11391339f1b10bbea1f,5fe192c09bf07dbca1605368,2020-12-22_00h32.43.292,FlowerSimilarity_Experiment,2020.1.2,Win32,60,5fe17d4a51f3a9c1a60f9869,,,,,,,,,,,,,,,,,,,1,FF,,7,0.813,,,,,,,,,,,,,,,,,,,,,,,,,,,,,,,,,,32,55,1,0,0,response1disk,3,151,8,-12,1,0,0,rectangle,8,-12,1,0,0,5,0,"[31,126,263,13,25,212,64,44,124,64,72,3,81,317,283,28,107,13,93,68]",8,-12,1,0,0,0,150,150,99,1,,,,,,,,,,,,,,,,,,,,,,,
,,,,,,,,,,,,,,,,,,,,,,,,,,,,,,,,,,,,,,,,,,,5f6ad11391339f1b10bbea1f,5fe192c09bf07dbca1605368,2020-12-22_00h32.43.292,FlowerSimilarity_Experiment,2020.1.2,Win32,60,5fe17d4a51f3a9c1a60f9869,,,,,,,,,,,,,,,,,,,8,FF,,2,1.806,,,,,,,,,,,,,,,,,,,,,,,,,,,,,,,,,,-65,-39,1,0,0,response5disk,5,152,-2,-7,1,0,0,rectangle,-2,-7,1,0,0,5,0,"[31,126,263,13,25,212,64,44,124,64,72,3,81,317,283,28,107,13,93,68]",-2,-7,1,0,0,0,151,151,152,1,,,,,,,,,,,,,,,,,,,,,,,
,,,,,,,,,,,,,,,,,,,,,,,,,,,,,,,,,,,,,,,,,,,5f6ad11391339f1b10bbea1f,5fe192c09bf07dbca1605368,2020-12-22_00h32.43.292,FlowerSimilarity_Experiment,2020.1.2,Win32,60,5fe17d4a51f3a9c1a60f9869,,,,,,,,,,,,,,,,,,,2,PF,,0,1.115,,,,,,,,,,,,,,,,,,,,,,,,,,,,,,,,,,-26,71,1,0,0,response7disk,2,153,-3,-8,1,0,0,rectangle,-3,-8,1,0,0,5,1,"[31,126,263,13,25,212,64,44,124,64,72,3,81,317,283,28,107,13,93,68]",-3,-8,1,0,0,0,152,152,14,1,,,,,,,,,,,,,,,,,,,,,,,
,,,,,,,,,,,,,,,,,,,,,,,,,,,,,,,,,,,,,,,,,,,5f6ad11391339f1b10bbea1f,5fe192c09bf07dbca1605368,2020-12-22_00h32.43.292,FlowerSimilarity_Experiment,2020.1.2,Win32,60,5fe17d4a51f3a9c1a60f9869,,,,,,,,,,,,,,,,,,,2,FF,,0,0.73,,,,,,,,,,,,,,,,,,,,,,,,,,,,,,,,,,-21,59,1,0,0,response7disk,2,154,14,0,1,0,0,rectangle,14,0,1,0,0,5,7,"[31,126,263,13,25,212,64,44,124,64,72,3,81,317,283,28,107,13,93,68]",14,0,1,0,0,0,153,153,142,1,,,,,,,,,,,,,,,,,,,,,,,
,,,,,,,,,,,,,,,,,,,,,,,,,,,,,,,,,,,,,,,,,,,5f6ad11391339f1b10bbea1f,5fe192c09bf07dbca1605368,2020-12-22_00h32.43.292,FlowerSimilarity_Experiment,2020.1.2,Win32,60,5fe17d4a51f3a9c1a60f9869,,,,,,,,,,,,,,,,,,,2,PF,,5,1.479,,,,,,,,,,,,,,,,,,,,,,,,,,,,,,,,,,62,-22,1,0,0,response3disk,1,155,12,3,1,0,0,rectangle,12,3,1,0,0,5,5,"[31,126,263,13,25,212,64,44,124,64,72,3,81,317,283,28,107,13,93,68]",12,3,1,0,0,0,154,154,9,1,,,,,,,,,,,,,,,,,,,,,,,
,,,,,,,,,,,,,,,,,,,,,,,,,,,,,,,,,,,,,,,,,,,5f6ad11391339f1b10bbea1f,5fe192c09bf07dbca1605368,2020-12-22_00h32.43.292,FlowerSimilarity_Experiment,2020.1.2,Win32,60,5fe17d4a51f3a9c1a60f9869,,,,,,,,,,,,,,,,,,,4,FF,,3,1.379,,,,,,,,,,,,,,,,,,,,,,,,,,,,,,,,,,-35,-81,1,0,0,response5disk,7,156,0,7,1,0,0,rectangle,0,7,1,0,0,5,5,"[31,126,263,13,25,212,64,44,124,64,72,3,81,317,283,28,107,13,93,68]",0,7,1,0,0,0,155,155,87,1,,,,,,,,,,,,,,,,,,,,,,,
,,,,,,,,,,,,,,,,,,,,,,,,,,,,,,,,,,,,,,,,,,,5f6ad11391339f1b10bbea1f,5fe192c09bf07dbca1605368,2020-12-22_00h32.43.292,FlowerSimilarity_Experiment,2020.1.2,Win32,60,5fe17d4a51f3a9c1a60f9869,,,,,,,,,,,,,,,,,,,3,PF,,7,1.229,,,,,,,,,,,,,,,,,,,,,,,,,,,,,,,,,,64,102,1,0,0,response1disk,8,157,-7,-7,1,0,0,rectangle,-7,-7,1,0,0,5,1,"[31,126,263,13,25,212,64,44,124,64,72,3,81,317,283,28,107,13,93,68]",-7,-7,1,0,0,0,156,156,3,1,,,,,,,,,,,,,,,,,,,,,,,
,,,,,,,,,,,,,,,,,,,,,,,,,,,,,,,,,,,,,,,,,,,5f6ad11391339f1b10bbea1f,5fe192c09bf07dbca1605368,2020-12-22_00h32.43.292,FlowerSimilarity_Experiment,2020.1.2,Win32,60,5fe17d4a51f3a9c1a60f9869,,,,,,,,,,,,,,,,,,,2,FF,,7,0.827,,,,,,,,,,,,,,,,,,,,,,,,,,,,,,,,,,48,101,1,0,0,response1disk,7,158,2,-7,1,0,0,rectangle,2,-7,1,0,0,5,5,"[31,126,263,13,25,212,64,44,124,64,72,3,81,317,283,28,107,13,93,68]",2,-7,1,0,0,0,157,157,63,1,,,,,,,,,,,,,,,,,,,,,,,
,,,,,,,,,,,,,,,,,,,,,,,,,,,,,,,,,,,,,,,,,,,5f6ad11391339f1b10bbea1f,5fe192c09bf07dbca1605368,2020-12-22_00h32.43.292,FlowerSimilarity_Experiment,2020.1.2,Win32,60,5fe17d4a51f3a9c1a60f9869,,,,,,,,,,,,,,,,,,,7,FF,,7,1.025,,,,,,,,,,,,,,,,,,,,,,,,,,,,,,,,,,37,59,1,0,0,response1disk,8,159,29,5,1,0,0,rectangle,29,5,1,0,0,5,4,"[31,126,263,13,25,212,64,44,124,64,72,3,81,317,283,28,107,13,93,68]",29,5,1,0,0,0,158,158,97,1,,,,,,,,,,,,,,,,,,,,,,,
,,,,,,,,,,,,,,,,,,,,,,,,,,,,,,,,,,,,,,,,,,,5f6ad11391339f1b10bbea1f,5fe192c09bf07dbca1605368,2020-12-22_00h32.43.292,FlowerSimilarity_Experiment,2020.1.2,Win32,60,5fe17d4a51f3a9c1a60f9869,,,,,,,,,,,,,,,,,,,9,FF,,0,0.878,,,,,,,,,,,,,,,,,,,,,,,,,,,,,,,,,,-33,66,1,0,0,response7disk,9,160,-4,-7,1,0,0,rectangle,-4,-7,1,0,0,5,1,"[31,126,263,13,25,212,64,44,124,64,72,3,81,317,283,28,107,13,93,68]",-4,-7,1,0,0,0,159,159,17,1,,,,,,,,,,,,,,,,,,,,,,,
,,,,,,,,,,,,,,,,,,,,,,,,,,,,,,,,,,,,,,,,,,,5f6ad11391339f1b10bbea1f,5fe192c09bf07dbca1605368,2020-12-22_00h32.43.292,FlowerSimilarity_Experiment,2020.1.2,Win32,60,5fe17d4a51f3a9c1a60f9869,,,,,,,,,,,,,,,,,,,2,PF,,7,0.878,,,,,,,,,,,,,,,,,,,,,,,,,,,,,,,,,,63,97,1,0,0,response1disk,5,161,26,1,1,0,0,rectangle,26,1,1,0,0,5,6,"[31,126,263,13,25,212,64,44,124,64,72,3,81,317,283,28,107,13,93,68]",26,1,1,0,0,0,160,160,147,1,,,,,,,,,,,,,,,,,,,,,,,
,,,,,,,,,,,,,,,,,,,,,,,,,,,,,,,,,,,,,,,,,,,5f6ad11391339f1b10bbea1f,5fe192c09bf07dbca1605368,2020-12-22_00h32.43.292,FlowerSimilarity_Experiment,2020.1.2,Win32,60,5fe17d4a51f3a9c1a60f9869,,,,,,,,,,,,,,,,,,,4,FF,,7,0.743,,,,,,,,,,,,,,,,,,,,,,,,,,,,,,,,,,36,103,1,0,0,response1disk,5,162,8,6,1,0,0,rectangle,8,6,1,0,0,5,7,"[31,126,263,13,25,212,64,44,124,64,72,3,81,317,283,28,107,13,93,68]",8,6,1,0,0,0,161,161,116,1,,,,,,,,,,,,,,,,,,,,,,,
,,,,,,,,,,,,,,,,,,,,,,,,,,,,,,,,,,,,,,,,,,,5f6ad11391339f1b10bbea1f,5fe192c09bf07dbca1605368,2020-12-22_00h32.43.292,FlowerSimilarity_Experiment,2020.1.2,Win32,60,5fe17d4a51f3a9c1a60f9869,,,,,,,,,,,,,,,,,,,,,,,,,,,,,,,,,,,,,,,,,,,,,,,,,,,,,,,,,,,,,,,,,,,,,,,,,,,,,,,,,,,,,,,,,,,0,0,0,0,1,,,,,,,,,,,,,,,,
,,,,,,,,,,,,,,,,,,,,,,,,,,,,,,,,,,,,,,,,,,,5f6ad11391339f1b10bbea1f,5fe192c09bf07dbca1605368,2020-12-22_00h32.43.292,FlowerSimilarity_Experiment,2020.1.2,Win32,60,5fe17d4a51f3a9c1a60f9869,,,,,,,,,,,,,,,,,,,4,PF,,7,0.839,,,,,,,,,,,,,,,,,,,,,,,,,,,,,,,,,,26,75,1,0,0,response1disk,2,163,7,2,1,0,0,rectangle,7,2,1,0,0,5,0,"[31,126,263,13,25,212,64,44,124,64,72,3,81,317,283,28,107,13,93,68]",7,2,1,0,0,0,0,0,108,1,,,,,,,,,,,,,,,,,,,,,,,
,,,,,,,,,,,,,,,,,,,,,,,,,,,,,,,,,,,,,,,,,,,5f6ad11391339f1b10bbea1f,5fe192c09bf07dbca1605368,2020-12-22_00h32.43.292,FlowerSimilarity_Experiment,2020.1.2,Win32,60,5fe17d4a51f3a9c1a60f9869,,,,,,,,,,,,,,,,,,,4,PF,,7,0.904,,,,,,,,,,,,,,,,,,,,,,,,,,,,,,,,,,26,90,1,0,0,response1disk,1,164,28,4,1,0,0,rectangle,28,4,1,0,0,5,3,"[31,126,263,13,25,212,64,44,124,64,72,3,81,317,283,28,107,13,93,68]",28,4,1,0,0,0,1,1,115,1,,,,,,,,,,,,,,,,,,,,,,,
,,,,,,,,,,,,,,,,,,,,,,,,,,,,,,,,,,,,,,,,,,,5f6ad11391339f1b10bbea1f,5fe192c09bf07dbca1605368,2020-12-22_00h32.43.292,FlowerSimilarity_Experiment,2020.1.2,Win32,60,5fe17d4a51f3a9c1a60f9869,,,,,,,,,,,,,,,,,,,3,PF,,7,0.673,,,,,,,,,,,,,,,,,,,,,,,,,,,,,,,,,,35,87,1,0,0,response1disk,9,165,11,3,1,0,0,rectangle,11,3,1,0,0,5,7,"[31,126,263,13,25,212,64,44,124,64,72,3,81,317,283,28,107,13,93,68]",11,3,1,0,0,0,2,2,79,1,,,,,,,,,,,,,,,,,,,,,,,
,,,,,,,,,,,,,,,,,,,,,,,,,,,,,,,,,,,,,,,,,,,5f6ad11391339f1b10bbea1f,5fe192c09bf07dbca1605368,2020-12-22_00h32.43.292,FlowerSimilarity_Experiment,2020.1.2,Win32,60,5fe17d4a51f3a9c1a60f9869,,,,,,,,,,,,,,,,,,,9,FF,,0,1.322,,,,,,,,,,,,,,,,,,,,,,,,,,,,,,,,,,-22,85,1,0,0,response7disk,1,166,-5,2,1,0,0,rectangle,-5,2,1,0,0,5,6,"[31,126,263,13,25,212,64,44,124,64,72,3,81,317,283,28,107,13,93,68]",-5,2,1,0,0,0,3,3,111,1,,,,,,,,,,,,,,,,,,,,,,,
,,,,,,,,,,,,,,,,,,,,,,,,,,,,,,,,,,,,,,,,,,,5f6ad11391339f1b10bbea1f,5fe192c09bf07dbca1605368,2020-12-22_00h32.43.292,FlowerSimilarity_Experiment,2020.1.2,Win32,60,5fe17d4a51f3a9c1a60f9869,,,,,,,,,,,,,,,,,,,8,FF,,7,2.097,,,,,,,,,,,,,,,,,,,,,,,,,,,,,,,,,,25,61,1,0,0,response1disk,3,167,-5,-10,1,0,0,rectangle,-5,-10,1,0,0,5,1,"[31,126,263,13,25,212,64,44,124,64,72,3,81,317,283,28,107,13,93,68]",-5,-10,1,0,0,0,4,4,154,1,,,,,,,,,,,,,,,,,,,,,,,
,,,,,,,,,,,,,,,,,,,,,,,,,,,,,,,,,,,,,,,,,,,5f6ad11391339f1b10bbea1f,5fe192c09bf07dbca1605368,2020-12-22_00h32.43.292,FlowerSimilarity_Experiment,2020.1.2,Win32,60,5fe17d4a51f3a9c1a60f9869,,,,,,,,,,,,,,,,,,,3,FF,,7,0.973,,,,,,,,,,,,,,,,,,,,,,,,,,,,,,,,,,46,77,1,0,0,response1disk,5,168,7,-9,1,0,0,rectangle,7,-9,1,0,0,5,3,"[31,126,263,13,25,212,64,44,124,64,72,3,81,317,283,28,107,13,93,68]",7,-9,1,0,0,0,5,5,101,1,,,,,,,,,,,,,,,,,,,,,,,
,,,,,,,,,,,,,,,,,,,,,,,,,,,,,,,,,,,,,,,,,,,5f6ad11391339f1b10bbea1f,5fe192c09bf07dbca1605368,2020-12-22_00h32.43.292,FlowerSimilarity_Experiment,2020.1.2,Win32,60,5fe17d4a51f3a9c1a60f9869,,,,,,,,,,,,,,,,,,,4,PF,,2,1.509,,,,,,,,,,,,,,,,,,,,,,,,,,,,,,,,,,-89,-31,1,0,0,response5disk,7,169,-4,-15,1,0,0,rectangle,-4,-15,1,0,0,5,7,"[31,126,263,13,25,212,64,44,124,64,72,3,81,317,283,28,107,13,93,68]",-4,-15,1,0,0,0,6,6,38,1,,,,,,,,,,,,,,,,,,,,,,,
,,,,,,,,,,,,,,,,,,,,,,,,,,,,,,,,,,,,,,,,,,,5f6ad11391339f1b10bbea1f,5fe192c09bf07dbca1605368,2020-12-22_00h32.43.292,FlowerSimilarity_Experiment,2020.1.2,Win32,60,5fe17d4a51f3a9c1a60f9869,,,,,,,,,,,,,,,,,,,5,FF,,7,0.742,,,,,,,,,,,,,,,,,,,,,,,,,,,,,,,,,,46,88,1,0,0,response1disk,9,170,-15,-2,1,0,0,rectangle,-15,-2,1,0,0,5,6,"[31,126,263,13,25,212,64,44,124,64,72,3,81,317,283,28,107,13,93,68]",-15,-2,1,0,0,0,7,7,61,1,,,,,,,,,,,,,,,,,,,,,,,
,,,,,,,,,,,,,,,,,,,,,,,,,,,,,,,,,,,,,,,,,,,5f6ad11391339f1b10bbea1f,5fe192c09bf07dbca1605368,2020-12-22_00h32.43.292,FlowerSimilarity_Experiment,2020.1.2,Win32,60,5fe17d4a51f3a9c1a60f9869,,,,,,,,,,,,,,,,,,,8,FF,,7,0.992,,,,,,,,,,,,,,,,,,,,,,,,,,,,,,,,,,47,67,1,0,0,response1disk,2,171,10,-2,1,0,0,rectangle,10,-2,1,0,0,5,5,"[31,126,263,13,25,212,64,44,124,64,72,3,81,317,283,28,107,13,93,68]",10,-2,1,0,0,0,8,8,22,1,,,,,,,,,,,,,,,,,,,,,,,
,,,,,,,,,,,,,,,,,,,,,,,,,,,,,,,,,,,,,,,,,,,5f6ad11391339f1b10bbea1f,5fe192c09bf07dbca1605368,2020-12-22_00h32.43.292,FlowerSimilarity_Experiment,2020.1.2,Win32,60,5fe17d4a51f3a9c1a60f9869,,,,,,,,,,,,,,,,,,,1,PF,,0,0.955,,,,,,,,,,,,,,,,,,,,,,,,,,,,,,,,,,-16,75,1,0,0,response7disk,1,172,2,10,1,0,0,rectangle,2,10,1,0,0,5,1,"[31,126,263,13,25,212,64,44,124,64,72,3,81,317,283,28,107,13,93,68]",2,10,1,0,0,0,9,9,76,1,,,,,,,,,,,,,,,,,,,,,,,
,,,,,,,,,,,,,,,,,,,,,,,,,,,,,,,,,,,,,,,,,,,5f6ad11391339f1b10bbea1f,5fe192c09bf07dbca1605368,2020-12-22_00h32.43.292,FlowerSimilarity_Experiment,2020.1.2,Win32,60,5fe17d4a51f3a9c1a60f9869,,,,,,,,,,,,,,,,,,,9,FF,,7,0.85,,,,,,,,,,,,,,,,,,,,,,,,,,,,,,,,,,53,62,1,0,0,response1disk,2,173,13,7,1,0,0,rectangle,13,7,1,0,0,5,7,"[31,126,263,13,25,212,64,44,124,64,72,3,81,317,283,28,107,13,93,68]",13,7,1,0,0,0,10,10,11,1,,,,,,,,,,,,,,,,,,,,,,,
,,,,,,,,,,,,,,,,,,,,,,,,,,,,,,,,,,,,,,,,,,,5f6ad11391339f1b10bbea1f,5fe192c09bf07dbca1605368,2020-12-22_00h32.43.292,FlowerSimilarity_Experiment,2020.1.2,Win32,60,5fe17d4a51f3a9c1a60f9869,,,,,,,,,,,,,,,,,,,5,PF,,7,0.782,,,,,,,,,,,,,,,,,,,,,,,,,,,,,,,,,,34,80,1,0,0,response1disk,6,174,-9,-1,1,0,0,rectangle,-9,-1,1,0,0,5,0,"[31,126,263,13,25,212,64,44,124,64,72,3,81,317,283,28,107,13,93,68]",-9,-1,1,0,0,0,11,11,103,1,,,,,,,,,,,,,,,,,,,,,,,
,,,,,,,,,,,,,,,,,,,,,,,,,,,,,,,,,,,,,,,,,,,5f6ad11391339f1b10bbea1f,5fe192c09bf07dbca1605368,2020-12-22_00h32.43.292,FlowerSimilarity_Experiment,2020.1.2,Win32,60,5fe17d4a51f3a9c1a60f9869,,,,,,,,,,,,,,,,,,,2,FF,,7,2.858,,,,,,,,,,,,,,,,,,,,,,,,,,,,,,,,,,27,63,1,0,0,response1disk,6,175,12,1,1,0,0,rectangle,12,1,1,0,0,5,7,"[31,126,263,13,25,212,64,44,124,64,72,3,81,317,283,28,107,13,93,68]",12,1,1,0,0,0,12,12,40,1,,,,,,,,,,,,,,,,,,,,,,,
,,,,,,,,,,,,,,,,,,,,,,,,,,,,,,,,,,,,,,,,,,,5f6ad11391339f1b10bbea1f,5fe192c09bf07dbca1605368,2020-12-22_00h32.43.292,FlowerSimilarity_Experiment,2020.1.2,Win32,60,5fe17d4a51f3a9c1a60f9869,,,,,,,,,,,,,,,,,,,2,PF,,2,1.323,,,,,,,,,,,,,,,,,,,,,,,,,,,,,,,,,,-56,-42,1,0,0,response5disk,3,176,14,11,1,0,0,rectangle,14,11,1,0,0,5,7,"[31,126,263,13,25,212,64,44,124,64,72,3,81,317,283,28,107,13,93,68]",14,11,1,0,0,0,13,13,69,1,,,,,,,,,,,,,,,,,,,,,,,
,,,,,,,,,,,,,,,,,,,,,,,,,,,,,,,,,,,,,,,,,,,5f6ad11391339f1b10bbea1f,5fe192c09bf07dbca1605368,2020-12-22_00h32.43.292,FlowerSimilarity_Experiment,2020.1.2,Win32,60,5fe17d4a51f3a9c1a60f9869,,,,,,,,,,,,,,,,,,,6,PF,,0,0.788,,,,,,,,,,,,,,,,,,,,,,,,,,,,,,,,,,-37,81,1,0,0,response7disk,1,177,-8,-5,1,0,0,rectangle,-8,-5,1,0,0,5,0,"[31,126,263,13,25,212,64,44,124,64,72,3,81,317,283,28,107,13,93,68]",-8,-5,1,0,0,0,14,14,46,1,,,,,,,,,,,,,,,,,,,,,,,
,,,,,,,,,,,,,,,,,,,,,,,,,,,,,,,,,,,,,,,,,,,5f6ad11391339f1b10bbea1f,5fe192c09bf07dbca1605368,2020-12-22_00h32.43.292,FlowerSimilarity_Experiment,2020.1.2,Win32,60,5fe17d4a51f3a9c1a60f9869,,,,,,,,,,,,,,,,,,,3,FF,,0,0.937,,,,,,,,,,,,,,,,,,,,,,,,,,,,,,,,,,-15,83,1,0,0,response7disk,3,178,4,4,1,0,0,rectangle,4,4,1,0,0,5,0,"[31,126,263,13,25,212,64,44,124,64,72,3,81,317,283,28,107,13,93,68]",4,4,1,0,0,0,15,15,68,1,,,,,,,,,,,,,,,,,,,,,,,
,,,,,,,,,,,,,,,,,,,,,,,,,,,,,,,,,,,,,,,,,,,5f6ad11391339f1b10bbea1f,5fe192c09bf07dbca1605368,2020-12-22_00h32.43.292,FlowerSimilarity_Experiment,2020.1.2,Win32,60,5fe17d4a51f3a9c1a60f9869,,,,,,,,,,,,,,,,,,,3,FF,,7,2.365,,,,,,,,,,,,,,,,,,,,,,,,,,,,,,,,,,41,104,1,0,0,response1disk,9,179,2,-4,1,0,0,rectangle,2,-4,1,0,0,5,4,"[31,126,263,13,25,212,64,44,124,64,72,3,81,317,283,28,107,13,93,68]",2,-4,1,0,0,0,16,16,143,1,,,,,,,,,,,,,,,,,,,,,,,
,,,,,,,,,,,,,,,,,,,,,,,,,,,,,,,,,,,,,,,,,,,5f6ad11391339f1b10bbea1f,5fe192c09bf07dbca1605368,2020-12-22_00h32.43.292,FlowerSimilarity_Experiment,2020.1.2,Win32,60,5fe17d4a51f3a9c1a60f9869,,,,,,,,,,,,,,,,,,,1,PF,,7,0.758,,,,,,,,,,,,,,,,,,,,,,,,,,,,,,,,,,67,101,1,0,0,response1disk,3,180,1,-5,1,0,0,rectangle,1,-5,1,0,0,5,0,"[31,126,263,13,25,212,64,44,124,64,72,3,81,317,283,28,107,13,93,68]",1,-5,1,0,0,0,17,17,1,1,,,,,,,,,,,,,,,,,,,,,,,
,,,,,,,,,,,,,,,,,,,,,,,,,,,,,,,,,,,,,,,,,,,5f6ad11391339f1b10bbea1f,5fe192c09bf07dbca1605368,2020-12-22_00h32.43.292,FlowerSimilarity_Experiment,2020.1.2,Win32,60,5fe17d4a51f3a9c1a60f9869,,,,,,,,,,,,,,,,,,,1,PF,,7,0.845,,,,,,,,,,,,,,,,,,,,,,,,,,,,,,,,,,32,83,1,0,0,response1disk,6,181,7,-11,1,0,0,rectangle,7,-11,1,0,0,5,1,"[31,126,263,13,25,212,64,44,124,64,72,3,81,317,283,28,107,13,93,68]",7,-11,1,0,0,0,18,18,144,1,,,,,,,,,,,,,,,,,,,,,,,
,,,,,,,,,,,,,,,,,,,,,,,,,,,,,,,,,,,,,,,,,,,5f6ad11391339f1b10bbea1f,5fe192c09bf07dbca1605368,2020-12-22_00h32.43.292,FlowerSimilarity_Experiment,2020.1.2,Win32,60,5fe17d4a51f3a9c1a60f9869,,,,,,,,,,,,,,,,,,,7,PF,,7,1.468,,,,,,,,,,,,,,,,,,,,,,,,,,,,,,,,,,40,79,1,0,0,response1disk,5,182,22,-1,1,0,0,rectangle,22,-1,1,0,0,5,7,"[31,126,263,13,25,212,64,44,124,64,72,3,81,317,283,28,107,13,93,68]",22,-1,1,0,0,0,19,19,92,1,,,,,,,,,,,,,,,,,,,,,,,
,,,,,,,,,,,,,,,,,,,,,,,,,,,,,,,,,,,,,,,,,,,5f6ad11391339f1b10bbea1f,5fe192c09bf07dbca1605368,2020-12-22_00h32.43.292,FlowerSimilarity_Experiment,2020.1.2,Win32,60,5fe17d4a51f3a9c1a60f9869,,,,,,,,,,,,,,,,,,,5,PF,,7,14.973,,,,,,,,,,,,,,,,,,,,,,,,,,,,,,,,,,58,86,1,0,0,response1disk,8,183,-3,5,1,0,0,rectangle,-3,5,1,0,0,5,7,"[31,126,263,13,25,212,64,44,124,64,72,3,81,317,283,28,107,13,93,68]",-3,5,1,0,0,0,20,20,149,1,,,,,,,,,,,,,,,,,,,,,,,
,,,,,,,,,,,,,,,,,,,,,,,,,,,,,,,,,,,,,,,,,,,5f6ad11391339f1b10bbea1f,5fe192c09bf07dbca1605368,2020-12-22_00h32.43.292,FlowerSimilarity_Experiment,2020.1.2,Win32,60,5fe17d4a51f3a9c1a60f9869,,,,,,,,,,,,,,,,,,,1,FF,,7,0.747,,,,,,,,,,,,,,,,,,,,,,,,,,,,,,,,,,34,77,1,0,0,response1disk,2,184,11,-6,1,0,0,rectangle,11,-6,1,0,0,5,1,"[31,126,263,13,25,212,64,44,124,64,72,3,81,317,283,28,107,13,93,68]",11,-6,1,0,0,0,21,21,2,1,,,,,,,,,,,,,,,,,,,,,,,
,,,,,,,,,,,,,,,,,,,,,,,,,,,,,,,,,,,,,,,,,,,5f6ad11391339f1b10bbea1f,5fe192c09bf07dbca1605368,2020-12-22_00h32.43.292,FlowerSimilarity_Experiment,2020.1.2,Win32,60,5fe17d4a51f3a9c1a60f9869,,,,,,,,,,,,,,,,,,,8,FF,,7,0.7,,,,,,,,,,,,,,,,,,,,,,,,,,,,,,,,,,49,75,1,0,0,response1disk,1,185,-5,11,1,0,0,rectangle,-5,11,1,0,0,5,4,"[31,126,263,13,25,212,64,44,124,64,72,3,81,317,283,28,107,13,93,68]",-5,11,1,0,0,0,22,22,20,1,,,,,,,,,,,,,,,,,,,,,,,
,,,,,,,,,,,,,,,,,,,,,,,,,,,,,,,,,,,,,,,,,,,5f6ad11391339f1b10bbea1f,5fe192c09bf07dbca1605368,2020-12-22_00h32.43.292,FlowerSimilarity_Experiment,2020.1.2,Win32,60,5fe17d4a51f3a9c1a60f9869,,,,,,,,,,,,,,,,,,,3,FF,,7,0.607,,,,,,,,,,,,,,,,,,,,,,,,,,,,,,,,,,57,84,1,0,0,response1disk,4,186,21,-7,1,0,0,rectangle,21,-7,1,0,0,5,1,"[31,126,263,13,25,212,64,44,124,64,72,3,81,317,283,28,107,13,93,68]",21,-7,1,0,0,0,23,23,110,1,,,,,,,,,,,,,,,,,,,,,,,
,,,,,,,,,,,,,,,,,,,,,,,,,,,,,,,,,,,,,,,,,,,5f6ad11391339f1b10bbea1f,5fe192c09bf07dbca1605368,2020-12-22_00h32.43.292,FlowerSimilarity_Experiment,2020.1.2,Win32,60,5fe17d4a51f3a9c1a60f9869,,,,,,,,,,,,,,,,,,,7,PF,,7,0.726,,,,,,,,,,,,,,,,,,,,,,,,,,,,,,,,,,72,105,1,0,0,response1disk,2,187,2,3,1,0,0,rectangle,2,3,1,0,0,5,1,"[31,126,263,13,25,212,64,44,124,64,72,3,81,317,283,28,107,13,93,68]",2,3,1,0,0,0,24,24,32,1,,,,,,,,,,,,,,,,,,,,,,,
,,,,,,,,,,,,,,,,,,,,,,,,,,,,,,,,,,,,,,,,,,,5f6ad11391339f1b10bbea1f,5fe192c09bf07dbca1605368,2020-12-22_00h32.43.292,FlowerSimilarity_Experiment,2020.1.2,Win32,60,5fe17d4a51f3a9c1a60f9869,,,,,,,,,,,,,,,,,,,7,FF,,7,0.516,,,,,,,,,,,,,,,,,,,,,,,,,,,,,,,,,,43,70,1,0,0,response1disk,9,188,-14,10,1,0,0,rectangle,-14,10,1,0,0,5,2,"[31,126,263,13,25,212,64,44,124,64,72,3,81,317,283,28,107,13,93,68]",-14,10,1,0,0,0,25,25,155,1,,,,,,,,,,,,,,,,,,,,,,,
,,,,,,,,,,,,,,,,,,,,,,,,,,,,,,,,,,,,,,,,,,,5f6ad11391339f1b10bbea1f,5fe192c09bf07dbca1605368,2020-12-22_00h32.43.292,FlowerSimilarity_Experiment,2020.1.2,Win32,60,5fe17d4a51f3a9c1a60f9869,,,,,,,,,,,,,,,,,,,5,FF,,7,0.572,,,,,,,,,,,,,,,,,,,,,,,,,,,,,,,,,,39,70,1,0,0,response1disk,7,189,-10,0,1,0,0,rectangle,-10,0,1,0,0,5,1,"[31,126,263,13,25,212,64,44,124,64,72,3,81,317,283,28,107,13,93,68]",-10,0,1,0,0,0,26,26,7,1,,,,,,,,,,,,,,,,,,,,,,,
,,,,,,,,,,,,,,,,,,,,,,,,,,,,,,,,,,,,,,,,,,,5f6ad11391339f1b10bbea1f,5fe192c09bf07dbca1605368,2020-12-22_00h32.43.292,FlowerSimilarity_Experiment,2020.1.2,Win32,60,5fe17d4a51f3a9c1a60f9869,,,,,,,,,,,,,,,,,,,2,PF,,7,0.65,,,,,,,,,,,,,,,,,,,,,,,,,,,,,,,,,,32,72,1,0,0,response1disk,6,190,-14,9,1,0,0,rectangle,-14,9,1,0,0,5,2,"[31,126,263,13,25,212,64,44,124,64,72,3,81,317,283,28,107,13,93,68]",-14,9,1,0,0,0,27,27,113,1,,,,,,,,,,,,,,,,,,,,,,,
,,,,,,,,,,,,,,,,,,,,,,,,,,,,,,,,,,,,,,,,,,,5f6ad11391339f1b10bbea1f,5fe192c09bf07dbca1605368,2020-12-22_00h32.43.292,FlowerSimilarity_Experiment,2020.1.2,Win32,60,5fe17d4a51f3a9c1a60f9869,,,,,,,,,,,,,,,,,,,7,FF,,0,0.951,,,,,,,,,,,,,,,,,,,,,,,,,,,,,,,,,,-69,102,1,0,0,response7disk,3,191,13,5,1,0,0,rectangle,13,5,1,0,0,5,2,"[31,126,263,13,25,212,64,44,124,64,72,3,81,317,283,28,107,13,93,68]",13,5,1,0,0,0,28,28,73,1,,,,,,,,,,,,,,,,,,,,,,,
,,,,,,,,,,,,,,,,,,,,,,,,,,,,,,,,,,,,,,,,,,,5f6ad11391339f1b10bbea1f,5fe192c09bf07dbca1605368,2020-12-22_00h32.43.292,FlowerSimilarity_Experiment,2020.1.2,Win32,60,5fe17d4a51f3a9c1a60f9869,,,,,,,,,,,,,,,,,,,5,FF,,7,0.582,,,,,,,,,,,,,,,,,,,,,,,,,,,,,,,,,,43,60,1,0,0,response1disk,6,192,-17,-9,1,0,0,rectangle,-17,-9,1,0,0,5,7,"[31,126,263,13,25,212,64,44,124,64,72,3,81,317,283,28,107,13,93,68]",-17,-9,1,0,0,0,29,29,12,1,,,,,,,,,,,,,,,,,,,,,,,
,,,,,,,,,,,,,,,,,,,,,,,,,,,,,,,,,,,,,,,,,,,5f6ad11391339f1b10bbea1f,5fe192c09bf07dbca1605368,2020-12-22_00h32.43.292,FlowerSimilarity_Experiment,2020.1.2,Win32,60,5fe17d4a51f3a9c1a60f9869,,,,,,,,,,,,,,,,,,,5,PF,,7,0.756,,,,,,,,,,,,,,,,,,,,,,,,,,,,,,,,,,37,77,1,0,0,response1disk,9,193,3,-8,1,0,0,rectangle,3,-8,1,0,0,5,7,"[31,126,263,13,25,212,64,44,124,64,72,3,81,317,283,28,107,13,93,68]",3,-8,1,0,0,0,30,30,136,1,,,,,,,,,,,,,,,,,,,,,,,
,,,,,,,,,,,,,,,,,,,,,,,,,,,,,,,,,,,,,,,,,,,5f6ad11391339f1b10bbea1f,5fe192c09bf07dbca1605368,2020-12-22_00h32.43.292,FlowerSimilarity_Experiment,2020.1.2,Win32,60,5fe17d4a51f3a9c1a60f9869,,,,,,,,,,,,,,,,,,,2,PF,,7,0.702,,,,,,,,,,,,,,,,,,,,,,,,,,,,,,,,,,38,62,1,0,0,response1disk,4,194,11,0,1,0,0,rectangle,11,0,1,0,0,5,6,"[31,126,263,13,25,212,64,44,124,64,72,3,81,317,283,28,107,13,93,68]",11,0,1,0,0,0,31,31,127,1,,,,,,,,,,,,,,,,,,,,,,,
,,,,,,,,,,,,,,,,,,,,,,,,,,,,,,,,,,,,,,,,,,,5f6ad11391339f1b10bbea1f,5fe192c09bf07dbca1605368,2020-12-22_00h32.43.292,FlowerSimilarity_Experiment,2020.1.2,Win32,60,5fe17d4a51f3a9c1a60f9869,,,,,,,,,,,,,,,,,,,1,PF,,7,0.747,,,,,,,,,,,,,,,,,,,,,,,,,,,,,,,,,,39,59,1,0,0,response1disk,7,195,11,12,1,0,0,rectangle,11,12,1,0,0,5,1,"[31,126,263,13,25,212,64,44,124,64,72,3,81,317,283,28,107,13,93,68]",11,12,1,0,0,0,32,32,150,1,,,,,,,,,,,,,,,,,,,,,,,
,,,,,,,,,,,,,,,,,,,,,,,,,,,,,,,,,,,,,,,,,,,5f6ad11391339f1b10bbea1f,5fe192c09bf07dbca1605368,2020-12-22_00h32.43.292,FlowerSimilarity_Experiment,2020.1.2,Win32,60,5fe17d4a51f3a9c1a60f9869,,,,,,,,,,,,,,,,,,,1,PF,,7,0.652,,,,,,,,,,,,,,,,,,,,,,,,,,,,,,,,,,32,68,1,0,0,response1disk,8,196,-5,-11,1,0,0,rectangle,-5,-11,1,0,0,5,1,"[31,126,263,13,25,212,64,44,124,64,72,3,81,317,283,28,107,13,93,68]",-5,-11,1,0,0,0,33,33,65,1,,,,,,,,,,,,,,,,,,,,,,,
,,,,,,,,,,,,,,,,,,,,,,,,,,,,,,,,,,,,,,,,,,,5f6ad11391339f1b10bbea1f,5fe192c09bf07dbca1605368,2020-12-22_00h32.43.292,FlowerSimilarity_Experiment,2020.1.2,Win32,60,5fe17d4a51f3a9c1a60f9869,,,,,,,,,,,,,,,,,,,8,PF,,7,0.56,,,,,,,,,,,,,,,,,,,,,,,,,,,,,,,,,,43,61,1,0,0,response1disk,4,197,-7,9,1,0,0,rectangle,-7,9,1,0,0,5,7,"[31,126,263,13,25,212,64,44,124,64,72,3,81,317,283,28,107,13,93,68]",-7,9,1,0,0,0,34,34,78,1,,,,,,,,,,,,,,,,,,,,,,,
,,,,,,,,,,,,,,,,,,,,,,,,,,,,,,,,,,,,,,,,,,,5f6ad11391339f1b10bbea1f,5fe192c09bf07dbca1605368,2020-12-22_00h32.43.292,FlowerSimilarity_Experiment,2020.1.2,Win32,60,5fe17d4a51f3a9c1a60f9869,,,,,,,,,,,,,,,,,,,7,PF,,7,0.726,,,,,,,,,,,,,,,,,,,,,,,,,,,,,,,,,,52,77,1,0,0,response1disk,9,198,9,1,1,0,0,rectangle,9,1,1,0,0,5,2,"[31,126,263,13,25,212,64,44,124,64,72,3,81,317,283,28,107,13,93,68]",9,1,1,0,0,0,35,35,10,1,,,,,,,,,,,,,,,,,,,,,,,
,,,,,,,,,,,,,,,,,,,,,,,,,,,,,,,,,,,,,,,,,,,5f6ad11391339f1b10bbea1f,5fe192c09bf07dbca1605368,2020-12-22_00h32.43.292,FlowerSimilarity_Experiment,2020.1.2,Win32,60,5fe17d4a51f3a9c1a60f9869,,,,,,,,,,,,,,,,,,,6,PF,,7,0.684,,,,,,,,,,,,,,,,,,,,,,,,,,,,,,,,,,31,85,1,0,0,response1disk,5,199,2,8,1,0,0,rectangle,2,8,1,0,0,5,7,"[31,126,263,13,25,212,64,44,124,64,72,3,81,317,283,28,107,13,93,68]",2,8,1,0,0,0,36,36,59,1,,,,,,,,,,,,,,,,,,,,,,,
,,,,,,,,,,,,,,,,,,,,,,,,,,,,,,,,,,,,,,,,,,,5f6ad11391339f1b10bbea1f,5fe192c09bf07dbca1605368,2020-12-22_00h32.43.292,FlowerSimilarity_Experiment,2020.1.2,Win32,60,5fe17d4a51f3a9c1a60f9869,,,,,,,,,,,,,,,,,,,1,PF,,7,0.674,,,,,,,,,,,,,,,,,,,,,,,,,,,,,,,,,,37,71,1,0,0,response1disk,5,200,3,0,1,0,0,rectangle,3,0,1,0,0,5,3,"[31,126,263,13,25,212,64,44,124,64,72,3,81,317,283,28,107,13,93,68]",3,0,1,0,0,0,37,37,28,1,,,,,,,,,,,,,,,,,,,,,,,
,,,,,,,,,,,,,,,,,,,,,,,,,,,,,,,,,,,,,,,,,,,5f6ad11391339f1b10bbea1f,5fe192c09bf07dbca1605368,2020-12-22_00h32.43.292,FlowerSimilarity_Experiment,2020.1.2,Win32,60,5fe17d4a51f3a9c1a60f9869,,,,,,,,,,,,,,,,,,,6,PF,,0,1.344,,,,,,,,,,,,,,,,,,,,,,,,,,,,,,,,,,-37,80,1,0,0,response7disk,9,201,27,5,1,0,0,rectangle,27,5,1,0,0,5,3,"[31,126,263,13,25,212,64,44,124,64,72,3,81,317,283,28,107,13,93,68]",27,5,1,0,0,0,38,38,45,1,,,,,,,,,,,,,,,,,,,,,,,
,,,,,,,,,,,,,,,,,,,,,,,,,,,,,,,,,,,,,,,,,,,5f6ad11391339f1b10bbea1f,5fe192c09bf07dbca1605368,2020-12-22_00h32.43.292,FlowerSimilarity_Experiment,2020.1.2,Win32,60,5fe17d4a51f3a9c1a60f9869,,,,,,,,,,,,,,,,,,,6,PF,,7,2.817,,,,,,,,,,,,,,,,,,,,,,,,,,,,,,,,,,47,87,1,0,0,response1disk,8,202,1,2,1,0,0,rectangle,1,2,1,0,0,5,2,"[31,126,263,13,25,212,64,44,124,64,72,3,81,317,283,28,107,13,93,68]",1,2,1,0,0,0,39,39,64,1,,,,,,,,,,,,,,,,,,,,,,,
,,,,,,,,,,,,,,,,,,,,,,,,,,,,,,,,,,,,,,,,,,,5f6ad11391339f1b10bbea1f,5fe192c09bf07dbca1605368,2020-12-22_00h32.43.292,FlowerSimilarity_Experiment,2020.1.2,Win32,60,5fe17d4a51f3a9c1a60f9869,,,,,,,,,,,,,,,,,,,4,FF,,7,2.08,,,,,,,,,,,,,,,,,,,,,,,,,,,,,,,,,,35,81,1,0,0,response1disk,6,203,-7,-3,1,0,0,rectangle,-7,-3,1,0,0,5,0,"[31,126,263,13,25,212,64,44,124,64,72,3,81,317,283,28,107,13,93,68]",-7,-3,1,0,0,0,40,40,122,1,,,,,,,,,,,,,,,,,,,,,,,
,,,,,,,,,,,,,,,,,,,,,,,,,,,,,,,,,,,,,,,,,,,5f6ad11391339f1b10bbea1f,5fe192c09bf07dbca1605368,2020-12-22_00h32.43.292,FlowerSimilarity_Experiment,2020.1.2,Win32,60,5fe17d4a51f3a9c1a60f9869,,,,,,,,,,,,,,,,,,,8,FF,,7,0.703,,,,,,,,,,,,,,,,,,,,,,,,,,,,,,,,,,27,62,1,0,0,response1disk,9,204,14,5,1,0,0,rectangle,14,5,1,0,0,5,4,"[31,126,263,13,25,212,64,44,124,64,72,3,81,317,283,28,107,13,93,68]",14,5,1,0,0,0,41,41,105,1,,,,,,,,,,,,,,,,,,,,,,,
,,,,,,,,,,,,,,,,,,,,,,,,,,,,,,,,,,,,,,,,,,,5f6ad11391339f1b10bbea1f,5fe192c09bf07dbca1605368,2020-12-22_00h32.43.292,FlowerSimilarity_Experiment,2020.1.2,Win32,60,5fe17d4a51f3a9c1a60f9869,,,,,,,,,,,,,,,,,,,7,PF,,7,0.961,,,,,,,,,,,,,,,,,,,,,,,,,,,,,,,,,,53,79,1,0,0,response1disk,8,205,22,13,1,0,0,rectangle,22,13,1,0,0,5,3,"[31,126,263,13,25,212,64,44,124,64,72,3,81,317,283,28,107,13,93,68]",22,13,1,0,0,0,42,42,140,1,,,,,,,,,,,,,,,,,,,,,,,
,,,,,,,,,,,,,,,,,,,,,,,,,,,,,,,,,,,,,,,,,,,5f6ad11391339f1b10bbea1f,5fe192c09bf07dbca1605368,2020-12-22_00h32.43.292,FlowerSimilarity_Experiment,2020.1.2,Win32,60,5fe17d4a51f3a9c1a60f9869,,,,,,,,,,,,,,,,,,,5,PF,,7,0.75,,,,,,,,,,,,,,,,,,,,,,,,,,,,,,,,,,36,82,1,0,0,response1disk,2,206,5,7,1,0,0,rectangle,5,7,1,0,0,5,3,"[31,126,263,13,25,212,64,44,124,64,72,3,81,317,283,28,107,13,93,68]",5,7,1,0,0,0,43,43,129,1,,,,,,,,,,,,,,,,,,,,,,,
,,,,,,,,,,,,,,,,,,,,,,,,,,,,,,,,,,,,,,,,,,,5f6ad11391339f1b10bbea1f,5fe192c09bf07dbca1605368,2020-12-22_00h32.43.292,FlowerSimilarity_Experiment,2020.1.2,Win32,60,5fe17d4a51f3a9c1a60f9869,,,,,,,,,,,,,,,,,,,6,FF,,1,1.411,,,,,,,,,,,,,,,,,,,,,,,,,,,,,,,,,,-63,27,1,0,0,response7disk,1,207,24,0,1,0,0,rectangle,24,0,1,0,0,5,5,"[31,126,263,13,25,212,64,44,124,64,72,3,81,317,283,28,107,13,93,68]",24,0,1,0,0,0,44,44,5,1,,,,,,,,,,,,,,,,,,,,,,,
,,,,,,,,,,,,,,,,,,,,,,,,,,,,,,,,,,,,,,,,,,,5f6ad11391339f1b10bbea1f,5fe192c09bf07dbca1605368,2020-12-22_00h32.43.292,FlowerSimilarity_Experiment,2020.1.2,Win32,60,5fe17d4a51f3a9c1a60f9869,,,,,,,,,,,,,,,,,,,2,PF,,7,1.03,,,,,,,,,,,,,,,,,,,,,,,,,,,,,,,,,,42,65,1,0,0,response1disk,9,208,-5,-13,1,0,0,rectangle,-5,-13,1,0,0,5,3,"[31,126,263,13,25,212,64,44,124,64,72,3,81,317,283,28,107,13,93,68]",-5,-13,1,0,0,0,45,45,39,1,,,,,,,,,,,,,,,,,,,,,,,
,,,,,,,,,,,,,,,,,,,,,,,,,,,,,,,,,,,,,,,,,,,5f6ad11391339f1b10bbea1f,5fe192c09bf07dbca1605368,2020-12-22_00h32.43.292,FlowerSimilarity_Experiment,2020.1.2,Win32,60,5fe17d4a51f3a9c1a60f9869,,,,,,,,,,,,,,,,,,,1,FF,,7,0.932,,,,,,,,,,,,,,,,,,,,,,,,,,,,,,,,,,37,62,1,0,0,response1disk,8,209,6,4,1,0,0,rectangle,6,4,1,0,0,5,6,"[31,126,263,13,25,212,64,44,124,64,72,3,81,317,283,28,107,13,93,68]",6,4,1,0,0,0,46,46,27,1,,,,,,,,,,,,,,,,,,,,,,,
,,,,,,,,,,,,,,,,,,,,,,,,,,,,,,,,,,,,,,,,,,,5f6ad11391339f1b10bbea1f,5fe192c09bf07dbca1605368,2020-12-22_00h32.43.292,FlowerSimilarity_Experiment,2020.1.2,Win32,60,5fe17d4a51f3a9c1a60f9869,,,,,,,,,,,,,,,,,,,7,PF,,0,1.099,,,,,,,,,,,,,,,,,,,,,,,,,,,,,,,,,,-38,76,1,0,0,response7disk,7,210,-9,-4,1,0,0,rectangle,-9,-4,1,0,0,5,4,"[31,126,263,13,25,212,64,44,124,64,72,3,81,317,283,28,107,13,93,68]",-9,-4,1,0,0,0,47,47,51,1,,,,,,,,,,,,,,,,,,,,,,,
