key_resp.keys,key_resp.rt,key_resp_16.keys,key_resp_16.rt,key_resp_2.keys,key_resp_2.rt,X Scale,ratio_pxpermm,screen_size_x,screen_size_y,testsize,key_resp_3.keys,key_resp_3.rt,key_resp_4.keys,key_resp_4.rt,line_size,key_resp_5.keys,key_resp_5.rt,key_resp_6.keys,key_resp_6.rt,key_resp_8.keys,key_resp_8.rt,key_resp_7.keys,key_resp_7.rt,key_resp_12.keys,key_resp_12.rt,key_resp_11.keys,key_resp_11.rt,key_resp_18.keys,key_resp_18.rt,key_resp_21.keys,key_resp_21.rt,key_resp_13.keys,key_resp_13.rt,key_resp_19.keys,key_resp_19.rt,ballposx,viewer_distance,trials.thisRepN,trials.thisTrialN,trials.thisN,trials.thisIndex,trials.ran,participant,session,date,expName,psychopyVersion,OS,frameRate,study_id,viewerdistancecm,DVA_to_distance,radius_F,radius_P,r_F,R_P,key_resp_20.keys,key_resp_20.rt,key_resp_14.keys,key_resp_14.rt,key_resp_15.keys,key_resp_15.rt,key_resp_17.keys,key_resp_17.rt,key_resp_9.keys,key_resp_9.rt,key_resp_10.keys,key_resp_10.rt,Flower1,Ecc,Flower_2,similarity,response_time,mouse_5.x,mouse_5.y,mouse_5.leftButton,mouse_5.midButton,mouse_5.rightButton,mouse_5.clicked_name,mouse_10.x,mouse_10.y,mouse_10.leftButton,mouse_10.midButton,mouse_10.rightButton,mouse_10.clicked_name,mouse_7.x,mouse_7.y,mouse_7.leftButton,mouse_7.midButton,mouse_7.rightButton,mouse_7.clicked_name,catchprac,catchnumberprac,mouse_6.x,mouse_6.y,mouse_6.leftButton,mouse_6.midButton,mouse_6.rightButton,mouse_6.clicked_name,duringprac.thisRepN,duringprac.thisTrialN,duringprac.thisN,duringprac.thisIndex,duringprac.ran,key_resp_22.keys,key_resp_22.rt,mouse.x,mouse.y,mouse.leftButton,mouse.midButton,mouse.rightButton,mouse.clicked_name,Flower2,trialnumber,mouse_2.x,mouse_2.y,mouse_2.leftButton,mouse_2.midButton,mouse_2.rightButton,mouse_2.clicked_name,mouse_3.x,mouse_3.y,mouse_3.leftButton,mouse_3.midButton,mouse_3.rightButton,catchresponse,catchnumber,catchtrialorder,mouse_11.x,mouse_11.y,mouse_11.leftButton,mouse_11.midButton,mouse_11.rightButton,trials_2.thisRepN,trials_2.thisTrialN,trials_2.thisN,trials_2.thisIndex,trials_2.ran,mouse_3.clicked_name,mouse_11.clicked_name,trials_3.thisRepN,trials_3.thisTrialN,trials_3.thisN,trials_3.thisIndex,trials_3.ran,answer1,rt1,answer2,rt2,answer3,rt3,answer4,rt4,answer5,rt5,answer6,rt6,answer8,rt8,answer7,rt7
space,3.16607,space,2.560735,space,5.089245,49.2,4.92,390.2439024,219.5121951,1920,space,24.03567,space,8.84456,98.4,space,6.89009,space,4.06681,space,1.053565,space,1.868195,space,5.22386,space,4.345525,space,26.64317,space,0.52513,space,3.93385,return,4.89108,-123.84,755.0370581,0,0,0,0,1,5f8846eef3c64e2b5bc33259,5fe192a66a3657c24e3ae120,2020-12-22_07h31.52.660,FlowerSimilarity_Experiment,2020.1.2,Win32,60,5fe17d4a51f3a9c1a60f9869,,,,,,,,,,,,,,,,,,,,,,,,,,,,,,,,,,,,,,,,,,,,,,,,,,,,,,,,,,,,,,,,,,,,,,,,,,,,,,,,,,,,,,,,,,,,,,,,,,,,,,,,,,,,,,,
,,,,,,,,,,,,,,,,,,,,,,,,,,,,,,,,,,return,4.92695,-129.6,759.9135084,1,0,1,0,1,5f8846eef3c64e2b5bc33259,5fe192a66a3657c24e3ae120,2020-12-22_07h31.52.660,FlowerSimilarity_Experiment,2020.1.2,Win32,60,5fe17d4a51f3a9c1a60f9869,,,,,,,,,,,,,,,,,,,,,,,,,,,,,,,,,,,,,,,,,,,,,,,,,,,,,,,,,,,,,,,,,,,,,,,,,,,,,,,,,,,,,,,,,,,,,,,,,,,,,,,,,,,,,,,
,,,,,,,,,,,,,,,,,,,,,,,,,,,,,,,,,,return,4.327965,-28.8,674.5756278,2,0,2,0,1,5f8846eef3c64e2b5bc33259,5fe192a66a3657c24e3ae120,2020-12-22_07h31.52.660,FlowerSimilarity_Experiment,2020.1.2,Win32,60,5fe17d4a51f3a9c1a60f9869,,,,,,,,,,,,,,,,,,,,,,,,,,,,,,,,,,,,,,,,,,,,,,,,,,,,,,,,,,,,,,,,,,,,,,,,,,,,,,,,,,,,,,,,,,,,,,,,,,,,,,,,,,,,,,,
,,,,,,,,,,,,,,,,,,,,,,,,,,,,,,,,,,return,4.548755,-66.24,706.2725549,3,0,3,0,1,5f8846eef3c64e2b5bc33259,5fe192a66a3657c24e3ae120,2020-12-22_07h31.52.660,FlowerSimilarity_Experiment,2020.1.2,Win32,60,5fe17d4a51f3a9c1a60f9869,,,,,,,,,,,,,,,,,,,,,,,,,,,,,,,,,,,,,,,,,,,,,,,,,,,,,,,,,,,,,,,,,,,,,,,,,,,,,,,,,,,,,,,,,,,,,,,,,,,,,,,,,,,,,,,
,,,,,,,,,,,,,,,,,,,,,,,,,,,,,,,,,,return,4.121255,8.64,642.8787007,4,0,4,0,1,5f8846eef3c64e2b5bc33259,5fe192a66a3657c24e3ae120,2020-12-22_07h31.52.660,FlowerSimilarity_Experiment,2020.1.2,Win32,60,5fe17d4a51f3a9c1a60f9869,,,,,,,,,,,,,,,,,,,,,,,,,,,,,,,,,,,,,,,,,,,,,,,,,,,,,,,,,,,,,,,,,,,,,,,,,,,,,,,,,,,,,,,,,,,,,,,,,,,,,,,,,,,,,,,
,,,,,,,,,,,,,,,,,,,,,,,,,,,,,,,,,,,,,,,,,,,5f8846eef3c64e2b5bc33259,5fe192a66a3657c24e3ae120,2020-12-22_07h31.52.660,FlowerSimilarity_Experiment,2020.1.2,Win32,60,5fe17d4a51f3a9c1a60f9869,71,12.39309167,91.4610165,609.74011,60.974011,274.3830495,space,4.45245,space,21.62839,space,21.77585,space,4.292325,space,1.961485,space,3.524985,7,PF,4,4,7.439355,48,-133,1,0,0,response3disk_5,2,-2,1,0,0,rectangle_8,64,115,1,0,0,response1disk_7,7,7,4,7,1,0,0,rectangle_4,0,0,0,6,1,,,,,,,,,,,,,,,,,,,,,,,,,,,,,,,,,,,,,,,,,,,,,,,,,,,,,,,,,
,,,,,,,,,,,,,,,,,,,,,,,,,,,,,,,,,,,,,,,,,,,5f8846eef3c64e2b5bc33259,5fe192a66a3657c24e3ae120,2020-12-22_07h31.52.660,FlowerSimilarity_Experiment,2020.1.2,Win32,60,5fe17d4a51f3a9c1a60f9869,,,,,,,,,,,,,,,,,,,7,PF,2,2,4.02128,-129,-60,1,0,0,response5disk_5,9,-5,1,0,0,rectangle_8,9,-5,1,0,0,,,7,9,-5,1,0,0,,0,1,1,2,1,,,,,,,,,,,,,,,,,,,,,,,,,,,,,,,,,,,,,,,,,,,,,,,,,,,,,,,,,
,,,,,,,,,,,,,,,,,,,,,,,,,,,,,,,,,,,,,,,,,,,5f8846eef3c64e2b5bc33259,5fe192a66a3657c24e3ae120,2020-12-22_07h31.52.660,FlowerSimilarity_Experiment,2020.1.2,Win32,60,5fe17d4a51f3a9c1a60f9869,,,,,,,,,,,,,,,,,,,2,PF,6,7,2.9221,68,117,1,0,0,response1disk_5,9,-7,1,0,0,rectangle_8,9,-7,1,0,0,,,7,9,-7,1,0,0,,0,2,2,4,1,,,,,,,,,,,,,,,,,,,,,,,,,,,,,,,,,,,,,,,,,,,,,,,,,,,,,,,,,
,,,,,,,,,,,,,,,,,,,,,,,,,,,,,,,,,,,,,,,,,,,5f8846eef3c64e2b5bc33259,5fe192a66a3657c24e3ae120,2020-12-22_07h31.52.660,FlowerSimilarity_Experiment,2020.1.2,Win32,60,5fe17d4a51f3a9c1a60f9869,,,,,,,,,,,,,,,,,,,7,FF,6,7,2.494315,77,104,1,0,0,response1disk_5,-3,11,1,0,0,rectangle_8,58,81,1,0,0,response1disk_7,7,7,-27,5,1,0,0,rectangle_4,0,3,3,3,1,,,,,,,,,,,,,,,,,,,,,,,,,,,,,,,,,,,,,,,,,,,,,,,,,,,,,,,,,
,,,,,,,,,,,,,,,,,,,,,,,,,,,,,,,,,,,,,,,,,,,5f8846eef3c64e2b5bc33259,5fe192a66a3657c24e3ae120,2020-12-22_07h31.52.660,FlowerSimilarity_Experiment,2020.1.2,Win32,60,5fe17d4a51f3a9c1a60f9869,,,,,,,,,,,,,,,,,,,6,PF,2,5,2.526465,128,-66,1,0,0,response3disk_5,13,6,1,0,0,rectangle_8,13,6,1,0,0,,,7,13,6,1,0,0,,0,4,4,1,1,,,,,,,,,,,,,,,,,,,,,,,,,,,,,,,,,,,,,,,,,,,,,,,,,,,,,,,,,
,,,,,,,,,,,,,,,,,,,,,,,,,,,,,,,,,,,,,,,,,,,5f8846eef3c64e2b5bc33259,5fe192a66a3657c24e3ae120,2020-12-22_07h31.52.660,FlowerSimilarity_Experiment,2020.1.2,Win32,60,5fe17d4a51f3a9c1a60f9869,,,,,,,,,,,,,,,,,,,7,FF,7,0,1.974415,-37,80,1,0,0,response7disk_5,-15,21,1,0,0,rectangle_8,-15,21,1,0,0,,,7,-15,21,1,0,0,,0,5,5,0,1,,,,,,,,,,,,,,,,,,,,,,,,,,,,,,,,,,,,,,,,,,,,,,,,,,,,,,,,,
,,,,,,,,,,,,,,,,,,,,,,,,,,,,,,,,,,,,,,,,,,,5f8846eef3c64e2b5bc33259,5fe192a66a3657c24e3ae120,2020-12-22_07h31.52.660,FlowerSimilarity_Experiment,2020.1.2,Win32,60,5fe17d4a51f3a9c1a60f9869,,,,,,,,,,,,,,,,,,,4,FF,9,6,2.75762,167,92,1,0,0,response1disk_5,-8,2,1,0,0,rectangle_8,-8,2,1,0,0,,,7,-8,2,1,0,0,,0,6,6,5,1,,,,,,,,,,,,,,,,,,,,,,,,,,,,,,,,,,,,,,,,,,,,,,,,,,,,,,,,,
,,,,,,,,,,,,,,,,,,,,,,,,,,,,,,,,,,,,,,,,,,,5f8846eef3c64e2b5bc33259,5fe192a66a3657c24e3ae120,2020-12-22_07h31.52.660,FlowerSimilarity_Experiment,2020.1.2,Win32,60,5fe17d4a51f3a9c1a60f9869,,,,,,,,,,,,,,,,,,,3,PF,,4,8.51263,,,,,,,,,,,,,,,,,,,,,,,,,,,,,,,,space,4.383345,94,-153,1,0,0,response3disk,2,1,15,8,1,0,0,rectangle,15,8,1,0,0,,3,"[271,311,75,59,144,313,152,124,88,125,135,178,278,94,96,267,23,256,159,141]",15,8,1,0,0,0,0,0,36,1,,,,,,,,,,,,,,,,,,,,,,,
,,,,,,,,,,,,,,,,,,,,,,,,,,,,,,,,,,,,,,,,,,,5f8846eef3c64e2b5bc33259,5fe192a66a3657c24e3ae120,2020-12-22_07h31.52.660,FlowerSimilarity_Experiment,2020.1.2,Win32,60,5fe17d4a51f3a9c1a60f9869,,,,,,,,,,,,,,,,,,,7,FF,,6,1.808725,,,,,,,,,,,,,,,,,,,,,,,,,,,,,,,,,,114,79,1,0,0,response1disk,1,2,-2,-3,1,0,0,rectangle,-2,-3,1,0,0,,4,"[271,311,75,59,144,313,152,124,88,125,135,178,278,94,96,267,23,256,159,141]",-2,-3,1,0,0,0,1,1,132,1,,,,,,,,,,,,,,,,,,,,,,,
,,,,,,,,,,,,,,,,,,,,,,,,,,,,,,,,,,,,,,,,,,,5f8846eef3c64e2b5bc33259,5fe192a66a3657c24e3ae120,2020-12-22_07h31.52.660,FlowerSimilarity_Experiment,2020.1.2,Win32,60,5fe17d4a51f3a9c1a60f9869,,,,,,,,,,,,,,,,,,,9,FF,,0,1.64095,,,,,,,,,,,,,,,,,,,,,,,,,,,,,,,,,,-79,128,1,0,0,response7disk,9,3,-5,-9,1,0,0,rectangle,-5,-9,1,0,0,,4,"[271,311,75,59,144,313,152,124,88,125,135,178,278,94,96,267,23,256,159,141]",-5,-9,1,0,0,0,2,2,17,1,,,,,,,,,,,,,,,,,,,,,,,
,,,,,,,,,,,,,,,,,,,,,,,,,,,,,,,,,,,,,,,,,,,5f8846eef3c64e2b5bc33259,5fe192a66a3657c24e3ae120,2020-12-22_07h31.52.660,FlowerSimilarity_Experiment,2020.1.2,Win32,60,5fe17d4a51f3a9c1a60f9869,,,,,,,,,,,,,,,,,,,8,PF,,4,5.005395,,,,,,,,,,,,,,,,,,,,,,,,,,,,,,,,,,82,-93,1,0,0,response3disk,2,4,9,14,1,0,0,rectangle,9,14,1,0,0,,7,"[271,311,75,59,144,313,152,124,88,125,135,178,278,94,96,267,23,256,159,141]",9,14,1,0,0,0,3,3,83,1,,,,,,,,,,,,,,,,,,,,,,,
,,,,,,,,,,,,,,,,,,,,,,,,,,,,,,,,,,,,,,,,,,,5f8846eef3c64e2b5bc33259,5fe192a66a3657c24e3ae120,2020-12-22_07h31.52.660,FlowerSimilarity_Experiment,2020.1.2,Win32,60,5fe17d4a51f3a9c1a60f9869,,,,,,,,,,,,,,,,,,,9,PF,,6,2.54614,,,,,,,,,,,,,,,,,,,,,,,,,,,,,,,,,,139,77,1,0,0,response1disk,7,5,31,18,1,0,0,rectangle,31,18,1,0,0,,4,"[271,311,75,59,144,313,152,124,88,125,135,178,278,94,96,267,23,256,159,141]",31,18,1,0,0,0,4,4,121,1,,,,,,,,,,,,,,,,,,,,,,,
,,,,,,,,,,,,,,,,,,,,,,,,,,,,,,,,,,,,,,,,,,,5f8846eef3c64e2b5bc33259,5fe192a66a3657c24e3ae120,2020-12-22_07h31.52.660,FlowerSimilarity_Experiment,2020.1.2,Win32,60,5fe17d4a51f3a9c1a60f9869,,,,,,,,,,,,,,,,,,,6,PF,,6,1.4761,,,,,,,,,,,,,,,,,,,,,,,,,,,,,,,,,,128,62,1,0,0,response1disk,3,6,-25,-21,1,0,0,rectangle,-25,-21,1,0,0,,0,"[271,311,75,59,144,313,152,124,88,125,135,178,278,94,96,267,23,256,159,141]",-25,-21,1,0,0,0,5,5,26,1,,,,,,,,,,,,,,,,,,,,,,,
,,,,,,,,,,,,,,,,,,,,,,,,,,,,,,,,,,,,,,,,,,,5f8846eef3c64e2b5bc33259,5fe192a66a3657c24e3ae120,2020-12-22_07h31.52.660,FlowerSimilarity_Experiment,2020.1.2,Win32,60,5fe17d4a51f3a9c1a60f9869,,,,,,,,,,,,,,,,,,,7,PF,,0,1.659015,,,,,,,,,,,,,,,,,,,,,,,,,,,,,,,,,,-41,124,1,0,0,response7disk,7,7,-3,18,1,0,0,rectangle,-3,18,1,0,0,,4,"[271,311,75,59,144,313,152,124,88,125,135,178,278,94,96,267,23,256,159,141]",-3,18,1,0,0,0,6,6,51,1,,,,,,,,,,,,,,,,,,,,,,,
,,,,,,,,,,,,,,,,,,,,,,,,,,,,,,,,,,,,,,,,,,,5f8846eef3c64e2b5bc33259,5fe192a66a3657c24e3ae120,2020-12-22_07h31.52.660,FlowerSimilarity_Experiment,2020.1.2,Win32,60,5fe17d4a51f3a9c1a60f9869,,,,,,,,,,,,,,,,,,,1,PF,,1,5.74664,,,,,,,,,,,,,,,,,,,,,,,,,,,,,,,,,,-117,47,1,0,0,response7disk,9,8,-21,-9,1,0,0,rectangle,-21,-9,1,0,0,,2,"[271,311,75,59,144,313,152,124,88,125,135,178,278,94,96,267,23,256,159,141]",-21,-9,1,0,0,0,7,7,15,1,,,,,,,,,,,,,,,,,,,,,,,
,,,,,,,,,,,,,,,,,,,,,,,,,,,,,,,,,,,,,,,,,,,5f8846eef3c64e2b5bc33259,5fe192a66a3657c24e3ae120,2020-12-22_07h31.52.660,FlowerSimilarity_Experiment,2020.1.2,Win32,60,5fe17d4a51f3a9c1a60f9869,,,,,,,,,,,,,,,,,,,2,FF,,7,1.47661,,,,,,,,,,,,,,,,,,,,,,,,,,,,,,,,,,64,106,1,0,0,response1disk,1,9,-12,6,1,0,0,rectangle,-12,6,1,0,0,,6,"[271,311,75,59,144,313,152,124,88,125,135,178,278,94,96,267,23,256,159,141]",-12,6,1,0,0,0,8,8,85,1,,,,,,,,,,,,,,,,,,,,,,,
,,,,,,,,,,,,,,,,,,,,,,,,,,,,,,,,,,,,,,,,,,,5f8846eef3c64e2b5bc33259,5fe192a66a3657c24e3ae120,2020-12-22_07h31.52.660,FlowerSimilarity_Experiment,2020.1.2,Win32,60,5fe17d4a51f3a9c1a60f9869,,,,,,,,,,,,,,,,,,,3,FF,,0,1.41514,,,,,,,,,,,,,,,,,,,,,,,,,,,,,,,,,,-44,139,1,0,0,response7disk,3,10,-5,21,1,0,0,rectangle,-5,21,1,0,0,,3,"[271,311,75,59,144,313,152,124,88,125,135,178,278,94,96,267,23,256,159,141]",-5,21,1,0,0,0,9,9,68,1,,,,,,,,,,,,,,,,,,,,,,,
,,,,,,,,,,,,,,,,,,,,,,,,,,,,,,,,,,,,,,,,,,,5f8846eef3c64e2b5bc33259,5fe192a66a3657c24e3ae120,2020-12-22_07h31.52.660,FlowerSimilarity_Experiment,2020.1.2,Win32,60,5fe17d4a51f3a9c1a60f9869,,,,,,,,,,,,,,,,,,,1,PF,,3,1.81596,,,,,,,,,,,,,,,,,,,,,,,,,,,,,,,,,,-88,-132,1,0,0,response5disk,6,11,-10,-3,1,0,0,rectangle,-10,-3,1,0,0,,3,"[271,311,75,59,144,313,152,124,88,125,135,178,278,94,96,267,23,256,159,141]",-10,-3,1,0,0,0,10,10,144,1,,,,,,,,,,,,,,,,,,,,,,,
,,,,,,,,,,,,,,,,,,,,,,,,,,,,,,,,,,,,,,,,,,,5f8846eef3c64e2b5bc33259,5fe192a66a3657c24e3ae120,2020-12-22_07h31.52.660,FlowerSimilarity_Experiment,2020.1.2,Win32,60,5fe17d4a51f3a9c1a60f9869,,,,,,,,,,,,,,,,,,,1,PF,,4,2.33411,,,,,,,,,,,,,,,,,,,,,,,,,,,,,,,,,,61,-138,1,0,0,response3disk,4,12,40,4,1,0,0,rectangle,40,4,1,0,0,,7,"[271,311,75,59,144,313,152,124,88,125,135,178,278,94,96,267,23,256,159,141]",40,4,1,0,0,0,11,11,139,1,,,,,,,,,,,,,,,,,,,,,,,
,,,,,,,,,,,,,,,,,,,,,,,,,,,,,,,,,,,,,,,,,,,5f8846eef3c64e2b5bc33259,5fe192a66a3657c24e3ae120,2020-12-22_07h31.52.660,FlowerSimilarity_Experiment,2020.1.2,Win32,60,5fe17d4a51f3a9c1a60f9869,,,,,,,,,,,,,,,,,,,5,FF,,7,2.280655,,,,,,,,,,,,,,,,,,,,,,,,,,,,,,,,,,78,115,1,0,0,response1disk,6,13,22,-5,1,0,0,rectangle,22,-5,1,0,0,,5,"[271,311,75,59,144,313,152,124,88,125,135,178,278,94,96,267,23,256,159,141]",22,-5,1,0,0,0,12,12,12,1,,,,,,,,,,,,,,,,,,,,,,,
,,,,,,,,,,,,,,,,,,,,,,,,,,,,,,,,,,,,,,,,,,,5f8846eef3c64e2b5bc33259,5fe192a66a3657c24e3ae120,2020-12-22_07h31.52.660,FlowerSimilarity_Experiment,2020.1.2,Win32,60,5fe17d4a51f3a9c1a60f9869,,,,,,,,,,,,,,,,,,,8,PF,,0,1.267965,,,,,,,,,,,,,,,,,,,,,,,,,,,,,,,,,,-56,159,1,0,0,response7disk,8,14,-10,14,1,0,0,rectangle,-10,14,1,0,0,,5,"[271,311,75,59,144,313,152,124,88,125,135,178,278,94,96,267,23,256,159,141]",-10,14,1,0,0,0,13,13,153,1,,,,,,,,,,,,,,,,,,,,,,,
,,,,,,,,,,,,,,,,,,,,,,,,,,,,,,,,,,,,,,,,,,,5f8846eef3c64e2b5bc33259,5fe192a66a3657c24e3ae120,2020-12-22_07h31.52.660,FlowerSimilarity_Experiment,2020.1.2,Win32,60,5fe17d4a51f3a9c1a60f9869,,,,,,,,,,,,,,,,,,,2,FF,,2,1.899015,,,,,,,,,,,,,,,,,,,,,,,,,,,,,,,,,,-93,-83,1,0,0,response5disk,4,15,34,8,1,0,0,rectangle,34,8,1,0,0,,0,"[271,311,75,59,144,313,152,124,88,125,135,178,278,94,96,267,23,256,159,141]",34,8,1,0,0,0,14,14,145,1,,,,,,,,,,,,,,,,,,,,,,,
,,,,,,,,,,,,,,,,,,,,,,,,,,,,,,,,,,,,,,,,,,,5f8846eef3c64e2b5bc33259,5fe192a66a3657c24e3ae120,2020-12-22_07h31.52.660,FlowerSimilarity_Experiment,2020.1.2,Win32,60,5fe17d4a51f3a9c1a60f9869,,,,,,,,,,,,,,,,,,,3,FF,,2,2.9222,,,,,,,,,,,,,,,,,,,,,,,,,,,,,,,,,,-119,-56,1,0,0,response5disk,2,16,-9,15,1,0,0,rectangle,-9,15,1,0,0,,5,"[271,311,75,59,144,313,152,124,88,125,135,178,278,94,96,267,23,256,159,141]",-9,15,1,0,0,0,15,15,93,1,,,,,,,,,,,,,,,,,,,,,,,
,,,,,,,,,,,,,,,,,,,,,,,,,,,,,,,,,,,,,,,,,,,5f8846eef3c64e2b5bc33259,5fe192a66a3657c24e3ae120,2020-12-22_07h31.52.660,FlowerSimilarity_Experiment,2020.1.2,Win32,60,5fe17d4a51f3a9c1a60f9869,,,,,,,,,,,,,,,,,,,6,FF,,6,4.78697,,,,,,,,,,,,,,,,,,,,,,,,,,,,,,,,,,149,56,1,0,0,response1disk,3,17,-2,3,1,0,0,rectangle,-2,3,1,0,0,,4,"[271,311,75,59,144,313,152,124,88,125,135,178,278,94,96,267,23,256,159,141]",-2,3,1,0,0,0,16,16,21,1,,,,,,,,,,,,,,,,,,,,,,,
,,,,,,,,,,,,,,,,,,,,,,,,,,,,,,,,,,,,,,,,,,,5f8846eef3c64e2b5bc33259,5fe192a66a3657c24e3ae120,2020-12-22_07h31.52.660,FlowerSimilarity_Experiment,2020.1.2,Win32,60,5fe17d4a51f3a9c1a60f9869,,,,,,,,,,,,,,,,,,,6,FF,,3,1.768555,,,,,,,,,,,,,,,,,,,,,,,,,,,,,,,,,,-80,-110,1,0,0,response5disk,1,18,-13,-8,1,0,0,rectangle,-13,-8,1,0,0,,6,"[271,311,75,59,144,313,152,124,88,125,135,178,278,94,96,267,23,256,159,141]",-13,-8,1,0,0,0,17,17,5,1,,,,,,,,,,,,,,,,,,,,,,,
,,,,,,,,,,,,,,,,,,,,,,,,,,,,,,,,,,,,,,,,,,,5f8846eef3c64e2b5bc33259,5fe192a66a3657c24e3ae120,2020-12-22_07h31.52.660,FlowerSimilarity_Experiment,2020.1.2,Win32,60,5fe17d4a51f3a9c1a60f9869,,,,,,,,,,,,,,,,,,,8,PF,,7,2.6893,,,,,,,,,,,,,,,,,,,,,,,,,,,,,,,,,,60,120,1,0,0,response1disk,4,19,1,-12,1,0,0,rectangle,1,-12,1,0,0,,3,"[271,311,75,59,144,313,152,124,88,125,135,178,278,94,96,267,23,256,159,141]",1,-12,1,0,0,0,18,18,78,1,,,,,,,,,,,,,,,,,,,,,,,
,,,,,,,,,,,,,,,,,,,,,,,,,,,,,,,,,,,,,,,,,,,5f8846eef3c64e2b5bc33259,5fe192a66a3657c24e3ae120,2020-12-22_07h31.52.660,FlowerSimilarity_Experiment,2020.1.2,Win32,60,5fe17d4a51f3a9c1a60f9869,,,,,,,,,,,,,,,,,,,2,FF,,0,1.032025,,,,,,,,,,,,,,,,,,,,,,,,,,,,,,,,,,-63,116,1,0,0,response7disk,2,20,0,16,1,0,0,rectangle,0,16,1,0,0,,5,"[271,311,75,59,144,313,152,124,88,125,135,178,278,94,96,267,23,256,159,141]",0,16,1,0,0,0,19,19,142,1,,,,,,,,,,,,,,,,,,,,,,,
,,,,,,,,,,,,,,,,,,,,,,,,,,,,,,,,,,,,,,,,,,,5f8846eef3c64e2b5bc33259,5fe192a66a3657c24e3ae120,2020-12-22_07h31.52.660,FlowerSimilarity_Experiment,2020.1.2,Win32,60,5fe17d4a51f3a9c1a60f9869,,,,,,,,,,,,,,,,,,,7,PF,,3,1.419075,,,,,,,,,,,,,,,,,,,,,,,,,,,,,,,,,,-54,-106,1,0,0,response5disk,5,21,10,-9,1,0,0,rectangle,10,-9,1,0,0,,4,"[271,311,75,59,144,313,152,124,88,125,135,178,278,94,96,267,23,256,159,141]",10,-9,1,0,0,0,20,20,92,1,,,,,,,,,,,,,,,,,,,,,,,
,,,,,,,,,,,,,,,,,,,,,,,,,,,,,,,,,,,,,,,,,,,5f8846eef3c64e2b5bc33259,5fe192a66a3657c24e3ae120,2020-12-22_07h31.52.660,FlowerSimilarity_Experiment,2020.1.2,Win32,60,5fe17d4a51f3a9c1a60f9869,,,,,,,,,,,,,,,,,,,6,PF,,7,1.2663,,,,,,,,,,,,,,,,,,,,,,,,,,,,,,,,,,59,144,1,0,0,response1disk,5,22,-15,-14,1,0,0,rectangle,-15,-14,1,0,0,,3,"[271,311,75,59,144,313,152,124,88,125,135,178,278,94,96,267,23,256,159,141]",-15,-14,1,0,0,0,21,21,59,1,,,,,,,,,,,,,,,,,,,,,,,
,,,,,,,,,,,,,,,,,,,,,,,,,,,,,,,,,,,,,,,,,,,5f8846eef3c64e2b5bc33259,5fe192a66a3657c24e3ae120,2020-12-22_07h31.52.660,FlowerSimilarity_Experiment,2020.1.2,Win32,60,5fe17d4a51f3a9c1a60f9869,,,,,,,,,,,,,,,,,,,4,PF,,3,2.69776,,,,,,,,,,,,,,,,,,,,,,,,,,,,,,,,,,-75,-111,1,0,0,response5disk,2,23,-12,6,1,0,0,rectangle,-69,-101,1,0,0,3,3,"[271,311,75,59,144,313,152,124,88,125,135,178,278,94,96,267,23,256,159,141]",-10,1,1,0,0,0,22,22,108,1,response5disk_3,rectangle,,,,,,,,,,,,,,,,,,,,,
,,,,,,,,,,,,,,,,,,,,,,,,,,,,,,,,,,,,,,,,,,,5f8846eef3c64e2b5bc33259,5fe192a66a3657c24e3ae120,2020-12-22_07h31.52.660,FlowerSimilarity_Experiment,2020.1.2,Win32,60,5fe17d4a51f3a9c1a60f9869,,,,,,,,,,,,,,,,,,,4,PF,,6,19.07594,,,,,,,,,,,,,,,,,,,,,,,,,,,,,,,,,,114,65,1,0,0,response1disk,8,24,13,2,1,0,0,rectangle,13,2,1,0,0,3,4,"[271,311,75,59,144,313,152,124,88,125,135,178,278,94,96,267,23,256,159,141]",13,2,1,0,0,0,23,23,124,1,,,,,,,,,,,,,,,,,,,,,,,
,,,,,,,,,,,,,,,,,,,,,,,,,,,,,,,,,,,,,,,,,,,5f8846eef3c64e2b5bc33259,5fe192a66a3657c24e3ae120,2020-12-22_07h31.52.660,FlowerSimilarity_Experiment,2020.1.2,Win32,60,5fe17d4a51f3a9c1a60f9869,,,,,,,,,,,,,,,,,,,6,FF,,6,1.663225,,,,,,,,,,,,,,,,,,,,,,,,,,,,,,,,,,122,67,1,0,0,response1disk,2,25,11,2,1,0,0,rectangle,11,2,1,0,0,3,1,"[271,311,75,59,144,313,152,124,88,125,135,178,278,94,96,267,23,256,159,141]",11,2,1,0,0,0,24,24,112,1,,,,,,,,,,,,,,,,,,,,,,,
,,,,,,,,,,,,,,,,,,,,,,,,,,,,,,,,,,,,,,,,,,,5f8846eef3c64e2b5bc33259,5fe192a66a3657c24e3ae120,2020-12-22_07h31.52.660,FlowerSimilarity_Experiment,2020.1.2,Win32,60,5fe17d4a51f3a9c1a60f9869,,,,,,,,,,,,,,,,,,,7,FF,,0,1.139965,,,,,,,,,,,,,,,,,,,,,,,,,,,,,,,,,,-51,123,1,0,0,response7disk,3,26,-7,4,1,0,0,rectangle,-7,4,1,0,0,3,1,"[271,311,75,59,144,313,152,124,88,125,135,178,278,94,96,267,23,256,159,141]",-7,4,1,0,0,0,25,25,73,1,,,,,,,,,,,,,,,,,,,,,,,
,,,,,,,,,,,,,,,,,,,,,,,,,,,,,,,,,,,,,,,,,,,5f8846eef3c64e2b5bc33259,5fe192a66a3657c24e3ae120,2020-12-22_07h31.52.660,FlowerSimilarity_Experiment,2020.1.2,Win32,60,5fe17d4a51f3a9c1a60f9869,,,,,,,,,,,,,,,,,,,4,PF,,5,2.37955,,,,,,,,,,,,,,,,,,,,,,,,,,,,,,,,,,123,-64,1,0,0,response3disk,6,27,13,0,1,0,0,rectangle,13,0,1,0,0,3,0,"[271,311,75,59,144,313,152,124,88,125,135,178,278,94,96,267,23,256,159,141]",13,0,1,0,0,0,26,26,120,1,,,,,,,,,,,,,,,,,,,,,,,
,,,,,,,,,,,,,,,,,,,,,,,,,,,,,,,,,,,,,,,,,,,5f8846eef3c64e2b5bc33259,5fe192a66a3657c24e3ae120,2020-12-22_07h31.52.660,FlowerSimilarity_Experiment,2020.1.2,Win32,60,5fe17d4a51f3a9c1a60f9869,,,,,,,,,,,,,,,,,,,8,PF,,5,2.200695,,,,,,,,,,,,,,,,,,,,,,,,,,,,,,,,,,101,-34,1,0,0,response3disk,7,28,3,19,1,0,0,rectangle,3,19,1,0,0,3,2,"[271,311,75,59,144,313,152,124,88,125,135,178,278,94,96,267,23,256,159,141]",3,19,1,0,0,0,27,27,23,1,,,,,,,,,,,,,,,,,,,,,,,
,,,,,,,,,,,,,,,,,,,,,,,,,,,,,,,,,,,,,,,,,,,5f8846eef3c64e2b5bc33259,5fe192a66a3657c24e3ae120,2020-12-22_07h31.52.660,FlowerSimilarity_Experiment,2020.1.2,Win32,60,5fe17d4a51f3a9c1a60f9869,,,,,,,,,,,,,,,,,,,4,PF,,2,1.708645,,,,,,,,,,,,,,,,,,,,,,,,,,,,,,,,,,-147,-58,1,0,0,response5disk,7,29,13,2,1,0,0,rectangle,13,2,1,0,0,3,0,"[271,311,75,59,144,313,152,124,88,125,135,178,278,94,96,267,23,256,159,141]",13,2,1,0,0,0,28,28,38,1,,,,,,,,,,,,,,,,,,,,,,,
,,,,,,,,,,,,,,,,,,,,,,,,,,,,,,,,,,,,,,,,,,,5f8846eef3c64e2b5bc33259,5fe192a66a3657c24e3ae120,2020-12-22_07h31.52.660,FlowerSimilarity_Experiment,2020.1.2,Win32,60,5fe17d4a51f3a9c1a60f9869,,,,,,,,,,,,,,,,,,,2,FF,,3,1.524985,,,,,,,,,,,,,,,,,,,,,,,,,,,,,,,,,,-89,-101,1,0,0,response5disk,7,30,-6,-3,1,0,0,rectangle,-6,-3,1,0,0,3,2,"[271,311,75,59,144,313,152,124,88,125,135,178,278,94,96,267,23,256,159,141]",-6,-3,1,0,0,0,29,29,63,1,,,,,,,,,,,,,,,,,,,,,,,
,,,,,,,,,,,,,,,,,,,,,,,,,,,,,,,,,,,,,,,,,,,5f8846eef3c64e2b5bc33259,5fe192a66a3657c24e3ae120,2020-12-22_07h31.52.660,FlowerSimilarity_Experiment,2020.1.2,Win32,60,5fe17d4a51f3a9c1a60f9869,,,,,,,,,,,,,,,,,,,5,PF,,7,1.26868,,,,,,,,,,,,,,,,,,,,,,,,,,,,,,,,,,67,120,1,0,0,response1disk,6,31,-6,3,1,0,0,rectangle,-6,3,1,0,0,3,6,"[271,311,75,59,144,313,152,124,88,125,135,178,278,94,96,267,23,256,159,141]",-6,3,1,0,0,0,30,30,103,1,,,,,,,,,,,,,,,,,,,,,,,
,,,,,,,,,,,,,,,,,,,,,,,,,,,,,,,,,,,,,,,,,,,5f8846eef3c64e2b5bc33259,5fe192a66a3657c24e3ae120,2020-12-22_07h31.52.660,FlowerSimilarity_Experiment,2020.1.2,Win32,60,5fe17d4a51f3a9c1a60f9869,,,,,,,,,,,,,,,,,,,1,FF,,4,2.150385,,,,,,,,,,,,,,,,,,,,,,,,,,,,,,,,,,71,-123,1,0,0,response3disk,4,32,12,-5,1,0,0,rectangle,12,-5,1,0,0,3,2,"[271,311,75,59,144,313,152,124,88,125,135,178,278,94,96,267,23,256,159,141]",12,-5,1,0,0,0,31,31,135,1,,,,,,,,,,,,,,,,,,,,,,,
,,,,,,,,,,,,,,,,,,,,,,,,,,,,,,,,,,,,,,,,,,,5f8846eef3c64e2b5bc33259,5fe192a66a3657c24e3ae120,2020-12-22_07h31.52.660,FlowerSimilarity_Experiment,2020.1.2,Win32,60,5fe17d4a51f3a9c1a60f9869,,,,,,,,,,,,,,,,,,,2,PF,,3,1.50952,,,,,,,,,,,,,,,,,,,,,,,,,,,,,,,,,,-57,-146,1,0,0,response5disk,7,33,14,-13,1,0,0,rectangle,14,-13,1,0,0,3,4,"[271,311,75,59,144,313,152,124,88,125,135,178,278,94,96,267,23,256,159,141]",14,-13,1,0,0,0,32,32,107,1,,,,,,,,,,,,,,,,,,,,,,,
,,,,,,,,,,,,,,,,,,,,,,,,,,,,,,,,,,,,,,,,,,,5f8846eef3c64e2b5bc33259,5fe192a66a3657c24e3ae120,2020-12-22_07h31.52.660,FlowerSimilarity_Experiment,2020.1.2,Win32,60,5fe17d4a51f3a9c1a60f9869,,,,,,,,,,,,,,,,,,,7,FF,,2,2.364885,,,,,,,,,,,,,,,,,,,,,,,,,,,,,,,,,,-136,-64,1,0,0,response5disk,4,34,18,-21,1,0,0,rectangle,18,-21,1,0,0,3,6,"[271,311,75,59,144,313,152,124,88,125,135,178,278,94,96,267,23,256,159,141]",18,-21,1,0,0,0,33,33,158,1,,,,,,,,,,,,,,,,,,,,,,,
,,,,,,,,,,,,,,,,,,,,,,,,,,,,,,,,,,,,,,,,,,,5f8846eef3c64e2b5bc33259,5fe192a66a3657c24e3ae120,2020-12-22_07h31.52.660,FlowerSimilarity_Experiment,2020.1.2,Win32,60,5fe17d4a51f3a9c1a60f9869,,,,,,,,,,,,,,,,,,,3,PF,,4,2.18722,,,,,,,,,,,,,,,,,,,,,,,,,,,,,,,,,,55,-132,1,0,0,response3disk,4,35,12,-3,1,0,0,rectangle,12,-3,1,0,0,3,7,"[271,311,75,59,144,313,152,124,88,125,135,178,278,94,96,267,23,256,159,141]",12,-3,1,0,0,0,34,34,30,1,,,,,,,,,,,,,,,,,,,,,,,
,,,,,,,,,,,,,,,,,,,,,,,,,,,,,,,,,,,,,,,,,,,5f8846eef3c64e2b5bc33259,5fe192a66a3657c24e3ae120,2020-12-22_07h31.52.660,FlowerSimilarity_Experiment,2020.1.2,Win32,60,5fe17d4a51f3a9c1a60f9869,,,,,,,,,,,,,,,,,,,4,FF,,2,2.64034,,,,,,,,,,,,,,,,,,,,,,,,,,,,,,,,,,-127,-87,1,0,0,response5disk,2,36,12,-15,1,0,0,rectangle,12,-15,1,0,0,3,3,"[271,311,75,59,144,313,152,124,88,125,135,178,278,94,96,267,23,256,159,141]",12,-15,1,0,0,0,35,35,13,1,,,,,,,,,,,,,,,,,,,,,,,
,,,,,,,,,,,,,,,,,,,,,,,,,,,,,,,,,,,,,,,,,,,5f8846eef3c64e2b5bc33259,5fe192a66a3657c24e3ae120,2020-12-22_07h31.52.660,FlowerSimilarity_Experiment,2020.1.2,Win32,60,5fe17d4a51f3a9c1a60f9869,,,,,,,,,,,,,,,,,,,6,FF,,7,1.28641,,,,,,,,,,,,,,,,,,,,,,,,,,,,,,,,,,79,119,1,0,0,response1disk,7,37,3,6,1,0,0,rectangle,3,6,1,0,0,3,7,"[271,311,75,59,144,313,152,124,88,125,135,178,278,94,96,267,23,256,159,141]",3,6,1,0,0,0,36,36,18,1,,,,,,,,,,,,,,,,,,,,,,,
,,,,,,,,,,,,,,,,,,,,,,,,,,,,,,,,,,,,,,,,,,,5f8846eef3c64e2b5bc33259,5fe192a66a3657c24e3ae120,2020-12-22_07h31.52.660,FlowerSimilarity_Experiment,2020.1.2,Win32,60,5fe17d4a51f3a9c1a60f9869,,,,,,,,,,,,,,,,,,,5,PF,,3,4.09986,,,,,,,,,,,,,,,,,,,,,,,,,,,,,,,,,,-46,-124,1,0,0,response5disk,7,38,-8,21,1,0,0,rectangle,-8,21,1,0,0,3,7,"[271,311,75,59,144,313,152,124,88,125,135,178,278,94,96,267,23,256,159,141]",-8,21,1,0,0,0,37,37,146,1,,,,,,,,,,,,,,,,,,,,,,,
,,,,,,,,,,,,,,,,,,,,,,,,,,,,,,,,,,,,,,,,,,,5f8846eef3c64e2b5bc33259,5fe192a66a3657c24e3ae120,2020-12-22_07h31.52.660,FlowerSimilarity_Experiment,2020.1.2,Win32,60,5fe17d4a51f3a9c1a60f9869,,,,,,,,,,,,,,,,,,,5,FF,,7,1.53899,,,,,,,,,,,,,,,,,,,,,,,,,,,,,,,,,,54,119,1,0,0,response1disk,4,39,13,-8,1,0,0,rectangle,13,-8,1,0,0,3,4,"[271,311,75,59,144,313,152,124,88,125,135,178,278,94,96,267,23,256,159,141]",13,-8,1,0,0,0,38,38,8,1,,,,,,,,,,,,,,,,,,,,,,,
,,,,,,,,,,,,,,,,,,,,,,,,,,,,,,,,,,,,,,,,,,,5f8846eef3c64e2b5bc33259,5fe192a66a3657c24e3ae120,2020-12-22_07h31.52.660,FlowerSimilarity_Experiment,2020.1.2,Win32,60,5fe17d4a51f3a9c1a60f9869,,,,,,,,,,,,,,,,,,,9,PF,,7,1.45832,,,,,,,,,,,,,,,,,,,,,,,,,,,,,,,,,,74,118,1,0,0,response1disk,3,40,2,10,1,0,0,rectangle,2,10,1,0,0,3,3,"[271,311,75,59,144,313,152,124,88,125,135,178,278,94,96,267,23,256,159,141]",2,10,1,0,0,0,39,39,119,1,,,,,,,,,,,,,,,,,,,,,,,
,,,,,,,,,,,,,,,,,,,,,,,,,,,,,,,,,,,,,,,,,,,5f8846eef3c64e2b5bc33259,5fe192a66a3657c24e3ae120,2020-12-22_07h31.52.660,FlowerSimilarity_Experiment,2020.1.2,Win32,60,5fe17d4a51f3a9c1a60f9869,,,,,,,,,,,,,,,,,,,4,FF,,3,2.08213,,,,,,,,,,,,,,,,,,,,,,,,,,,,,,,,,,-34,-100,1,0,0,response5disk,7,41,3,-1,1,0,0,rectangle,3,-1,1,0,0,3,3,"[271,311,75,59,144,313,152,124,88,125,135,178,278,94,96,267,23,256,159,141]",3,-1,1,0,0,0,40,40,87,1,,,,,,,,,,,,,,,,,,,,,,,
,,,,,,,,,,,,,,,,,,,,,,,,,,,,,,,,,,,,,,,,,,,5f8846eef3c64e2b5bc33259,5fe192a66a3657c24e3ae120,2020-12-22_07h31.52.660,FlowerSimilarity_Experiment,2020.1.2,Win32,60,5fe17d4a51f3a9c1a60f9869,,,,,,,,,,,,,,,,,,,8,PF,,0,1.466355,,,,,,,,,,,,,,,,,,,,,,,,,,,,,,,,,,-45,126,1,0,0,response7disk,5,42,-14,18,1,0,0,rectangle,-14,18,1,0,0,3,5,"[271,311,75,59,144,313,152,124,88,125,135,178,278,94,96,267,23,256,159,141]",-14,18,1,0,0,0,41,41,98,1,,,,,,,,,,,,,,,,,,,,,,,
,,,,,,,,,,,,,,,,,,,,,,,,,,,,,,,,,,,,,,,,,,,5f8846eef3c64e2b5bc33259,5fe192a66a3657c24e3ae120,2020-12-22_07h31.52.660,FlowerSimilarity_Experiment,2020.1.2,Win32,60,5fe17d4a51f3a9c1a60f9869,,,,,,,,,,,,,,,,,,,7,PF,,3,2.101545,,,,,,,,,,,,,,,,,,,,,,,,,,,,,,,,,,-61,-124,1,0,0,response5disk,2,43,-30,9,1,0,0,rectangle,-30,9,1,0,0,3,6,"[271,311,75,59,144,313,152,124,88,125,135,178,278,94,96,267,23,256,159,141]",-30,9,1,0,0,0,42,42,32,1,,,,,,,,,,,,,,,,,,,,,,,
,,,,,,,,,,,,,,,,,,,,,,,,,,,,,,,,,,,,,,,,,,,5f8846eef3c64e2b5bc33259,5fe192a66a3657c24e3ae120,2020-12-22_07h31.52.660,FlowerSimilarity_Experiment,2020.1.2,Win32,60,5fe17d4a51f3a9c1a60f9869,,,,,,,,,,,,,,,,,,,6,PF,,2,2.38227,,,,,,,,,,,,,,,,,,,,,,,,,,,,,,,,,,-106,-33,1,0,0,response5disk,1,44,-25,13,1,0,0,rectangle,-25,13,1,0,0,3,2,"[271,311,75,59,144,313,152,124,88,125,135,178,278,94,96,267,23,256,159,141]",-25,13,1,0,0,0,43,43,46,1,,,,,,,,,,,,,,,,,,,,,,,
,,,,,,,,,,,,,,,,,,,,,,,,,,,,,,,,,,,,,,,,,,,5f8846eef3c64e2b5bc33259,5fe192a66a3657c24e3ae120,2020-12-22_07h31.52.660,FlowerSimilarity_Experiment,2020.1.2,Win32,60,5fe17d4a51f3a9c1a60f9869,,,,,,,,,,,,,,,,,,,4,FF,,0,2.464375,,,,,,,,,,,,,,,,,,,,,,,,,,,,,,,,,,-40,125,1,0,0,response7disk,4,45,-21,-2,1,0,0,rectangle,-21,-2,1,0,0,3,4,"[271,311,75,59,144,313,152,124,88,125,135,178,278,94,96,267,23,256,159,141]",-21,-2,1,0,0,0,44,44,84,1,,,,,,,,,,,,,,,,,,,,,,,
,,,,,,,,,,,,,,,,,,,,,,,,,,,,,,,,,,,,,,,,,,,5f8846eef3c64e2b5bc33259,5fe192a66a3657c24e3ae120,2020-12-22_07h31.52.660,FlowerSimilarity_Experiment,2020.1.2,Win32,60,5fe17d4a51f3a9c1a60f9869,,,,,,,,,,,,,,,,,,,8,FF,,7,1.191775,,,,,,,,,,,,,,,,,,,,,,,,,,,,,,,,,,95,136,1,0,0,response1disk,6,46,-5,-3,1,0,0,rectangle,-5,-3,1,0,0,3,6,"[271,311,75,59,144,313,152,124,88,125,135,178,278,94,96,267,23,256,159,141]",-5,-3,1,0,0,0,45,45,37,1,,,,,,,,,,,,,,,,,,,,,,,
,,,,,,,,,,,,,,,,,,,,,,,,,,,,,,,,,,,,,,,,,,,5f8846eef3c64e2b5bc33259,5fe192a66a3657c24e3ae120,2020-12-22_07h31.52.660,FlowerSimilarity_Experiment,2020.1.2,Win32,60,5fe17d4a51f3a9c1a60f9869,,,,,,,,,,,,,,,,,,,5,FF,,3,1.93256,,,,,,,,,,,,,,,,,,,,,,,,,,,,,,,,,,-52,-131,1,0,0,response5disk,2,47,-23,7,1,0,0,rectangle,-23,7,1,0,0,3,4,"[271,311,75,59,144,313,152,124,88,125,135,178,278,94,96,267,23,256,159,141]",-23,7,1,0,0,0,46,46,55,1,,,,,,,,,,,,,,,,,,,,,,,
,,,,,,,,,,,,,,,,,,,,,,,,,,,,,,,,,,,,,,,,,,,5f8846eef3c64e2b5bc33259,5fe192a66a3657c24e3ae120,2020-12-22_07h31.52.660,FlowerSimilarity_Experiment,2020.1.2,Win32,60,5fe17d4a51f3a9c1a60f9869,,,,,,,,,,,,,,,,,,,7,FF,,7,1.12365,,,,,,,,,,,,,,,,,,,,,,,,,,,,,,,,,,72,147,1,0,0,response1disk,9,48,9,15,1,0,0,rectangle,9,15,1,0,0,3,2,"[271,311,75,59,144,313,152,124,88,125,135,178,278,94,96,267,23,256,159,141]",9,15,1,0,0,0,47,47,155,1,,,,,,,,,,,,,,,,,,,,,,,
,,,,,,,,,,,,,,,,,,,,,,,,,,,,,,,,,,,,,,,,,,,5f8846eef3c64e2b5bc33259,5fe192a66a3657c24e3ae120,2020-12-22_07h31.52.660,FlowerSimilarity_Experiment,2020.1.2,Win32,60,5fe17d4a51f3a9c1a60f9869,,,,,,,,,,,,,,,,,,,9,PF,,7,1.91632,,,,,,,,,,,,,,,,,,,,,,,,,,,,,,,,,,98,158,1,0,0,response1disk,8,49,-5,-12,1,0,0,rectangle,-5,-12,1,0,0,3,5,"[271,311,75,59,144,313,152,124,88,125,135,178,278,94,96,267,23,256,159,141]",-5,-12,1,0,0,0,48,48,67,1,,,,,,,,,,,,,,,,,,,,,,,
,,,,,,,,,,,,,,,,,,,,,,,,,,,,,,,,,,,,,,,,,,,5f8846eef3c64e2b5bc33259,5fe192a66a3657c24e3ae120,2020-12-22_07h31.52.660,FlowerSimilarity_Experiment,2020.1.2,Win32,60,5fe17d4a51f3a9c1a60f9869,,,,,,,,,,,,,,,,,,,4,PF,,7,2.67986,,,,,,,,,,,,,,,,,,,,,,,,,,,,,,,,,,55,106,1,0,0,response1disk,5,50,-25,-14,1,0,0,rectangle,-25,-14,1,0,0,3,4,"[271,311,75,59,144,313,152,124,88,125,135,178,278,94,96,267,23,256,159,141]",-25,-14,1,0,0,0,49,49,49,1,,,,,,,,,,,,,,,,,,,,,,,
,,,,,,,,,,,,,,,,,,,,,,,,,,,,,,,,,,,,,,,,,,,5f8846eef3c64e2b5bc33259,5fe192a66a3657c24e3ae120,2020-12-22_07h31.52.660,FlowerSimilarity_Experiment,2020.1.2,Win32,60,5fe17d4a51f3a9c1a60f9869,,,,,,,,,,,,,,,,,,,7,PF,,6,2.532305,,,,,,,,,,,,,,,,,,,,,,,,,,,,,,,,,,115,71,1,0,0,response1disk,8,51,39,11,1,0,0,rectangle,39,11,1,0,0,3,2,"[271,311,75,59,144,313,152,124,88,125,135,178,278,94,96,267,23,256,159,141]",39,11,1,0,0,0,50,50,140,1,,,,,,,,,,,,,,,,,,,,,,,
,,,,,,,,,,,,,,,,,,,,,,,,,,,,,,,,,,,,,,,,,,,5f8846eef3c64e2b5bc33259,5fe192a66a3657c24e3ae120,2020-12-22_07h31.52.660,FlowerSimilarity_Experiment,2020.1.2,Win32,60,5fe17d4a51f3a9c1a60f9869,,,,,,,,,,,,,,,,,,,1,PF,,6,1.121015,,,,,,,,,,,,,,,,,,,,,,,,,,,,,,,,,,106,73,1,0,0,response1disk,8,52,-9,7,1,0,0,rectangle,-9,7,1,0,0,3,7,"[271,311,75,59,144,313,152,124,88,125,135,178,278,94,96,267,23,256,159,141]",-9,7,1,0,0,0,51,51,65,1,,,,,,,,,,,,,,,,,,,,,,,
,,,,,,,,,,,,,,,,,,,,,,,,,,,,,,,,,,,,,,,,,,,5f8846eef3c64e2b5bc33259,5fe192a66a3657c24e3ae120,2020-12-22_07h31.52.660,FlowerSimilarity_Experiment,2020.1.2,Win32,60,5fe17d4a51f3a9c1a60f9869,,,,,,,,,,,,,,,,,,,8,FF,,5,5.5754,,,,,,,,,,,,,,,,,,,,,,,,,,,,,,,,,,112,-33,1,0,0,response3disk,7,53,4,3,1,0,0,rectangle,4,3,1,0,0,3,4,"[271,311,75,59,144,313,152,124,88,125,135,178,278,94,96,267,23,256,159,141]",4,3,1,0,0,0,52,52,86,1,,,,,,,,,,,,,,,,,,,,,,,
,,,,,,,,,,,,,,,,,,,,,,,,,,,,,,,,,,,,,,,,,,,5f8846eef3c64e2b5bc33259,5fe192a66a3657c24e3ae120,2020-12-22_07h31.52.660,FlowerSimilarity_Experiment,2020.1.2,Win32,60,5fe17d4a51f3a9c1a60f9869,,,,,,,,,,,,,,,,,,,3,PF,,7,1.24348,,,,,,,,,,,,,,,,,,,,,,,,,,,,,,,,,,39,100,1,0,0,response1disk,1,54,-31,16,1,0,0,rectangle,-31,16,1,0,0,3,5,"[271,311,75,59,144,313,152,124,88,125,135,178,278,94,96,267,23,256,159,141]",-31,16,1,0,0,0,53,53,96,1,,,,,,,,,,,,,,,,,,,,,,,
,,,,,,,,,,,,,,,,,,,,,,,,,,,,,,,,,,,,,,,,,,,5f8846eef3c64e2b5bc33259,5fe192a66a3657c24e3ae120,2020-12-22_07h31.52.660,FlowerSimilarity_Experiment,2020.1.2,Win32,60,5fe17d4a51f3a9c1a60f9869,,,,,,,,,,,,,,,,,,,9,FF,,1,2.32962,,,,,,,,,,,,,,,,,,,,,,,,,,,,,,,,,,-94,55,1,0,0,response7disk,1,55,-13,7,1,0,0,rectangle,-13,7,1,0,0,3,2,"[271,311,75,59,144,313,152,124,88,125,135,178,278,94,96,267,23,256,159,141]",-13,7,1,0,0,0,54,54,111,1,,,,,,,,,,,,,,,,,,,,,,,
,,,,,,,,,,,,,,,,,,,,,,,,,,,,,,,,,,,,,,,,,,,5f8846eef3c64e2b5bc33259,5fe192a66a3657c24e3ae120,2020-12-22_07h31.52.660,FlowerSimilarity_Experiment,2020.1.2,Win32,60,5fe17d4a51f3a9c1a60f9869,,,,,,,,,,,,,,,,,,,5,FF,,3,1.72232,,,,,,,,,,,,,,,,,,,,,,,,,,,,,,,,,,-59,-126,1,0,0,response5disk,7,56,-8,7,1,0,0,rectangle,-8,7,1,0,0,3,2,"[271,311,75,59,144,313,152,124,88,125,135,178,278,94,96,267,23,256,159,141]",-8,7,1,0,0,0,55,55,7,1,,,,,,,,,,,,,,,,,,,,,,,
,,,,,,,,,,,,,,,,,,,,,,,,,,,,,,,,,,,,,,,,,,,5f8846eef3c64e2b5bc33259,5fe192a66a3657c24e3ae120,2020-12-22_07h31.52.660,FlowerSimilarity_Experiment,2020.1.2,Win32,60,5fe17d4a51f3a9c1a60f9869,,,,,,,,,,,,,,,,,,,1,PF,,6,1.542475,,,,,,,,,,,,,,,,,,,,,,,,,,,,,,,,,,101,62,1,0,0,response1disk,3,57,30,-7,1,0,0,rectangle,30,-7,1,0,0,3,1,"[271,311,75,59,144,313,152,124,88,125,135,178,278,94,96,267,23,256,159,141]",30,-7,1,0,0,0,56,56,1,1,,,,,,,,,,,,,,,,,,,,,,,
,,,,,,,,,,,,,,,,,,,,,,,,,,,,,,,,,,,,,,,,,,,5f8846eef3c64e2b5bc33259,5fe192a66a3657c24e3ae120,2020-12-22_07h31.52.660,FlowerSimilarity_Experiment,2020.1.2,Win32,60,5fe17d4a51f3a9c1a60f9869,,,,,,,,,,,,,,,,,,,8,FF,,3,2.10224,,,,,,,,,,,,,,,,,,,,,,,,,,,,,,,,,,-60,-93,1,0,0,response5disk,3,58,-22,12,1,0,0,rectangle,-22,12,1,0,0,3,3,"[271,311,75,59,144,313,152,124,88,125,135,178,278,94,96,267,23,256,159,141]",-22,12,1,0,0,0,57,57,154,1,,,,,,,,,,,,,,,,,,,,,,,
,,,,,,,,,,,,,,,,,,,,,,,,,,,,,,,,,,,,,,,,,,,5f8846eef3c64e2b5bc33259,5fe192a66a3657c24e3ae120,2020-12-22_07h31.52.660,FlowerSimilarity_Experiment,2020.1.2,Win32,60,5fe17d4a51f3a9c1a60f9869,,,,,,,,,,,,,,,,,,,1,FF,,7,1.48192,,,,,,,,,,,,,,,,,,,,,,,,,,,,,,,,,,73,124,1,0,0,response1disk,2,59,0,-8,1,0,0,rectangle,69,120,1,0,0,7,7,"[271,311,75,59,144,313,152,124,88,125,135,178,278,94,96,267,23,256,159,141]",36,-2,1,0,0,0,58,58,2,1,response1disk_3,rectangle,,,,,,,,,,,,,,,,,,,,,
,,,,,,,,,,,,,,,,,,,,,,,,,,,,,,,,,,,,,,,,,,,5f8846eef3c64e2b5bc33259,5fe192a66a3657c24e3ae120,2020-12-22_07h31.52.660,FlowerSimilarity_Experiment,2020.1.2,Win32,60,5fe17d4a51f3a9c1a60f9869,,,,,,,,,,,,,,,,,,,2,FF,,7,1.32544,,,,,,,,,,,,,,,,,,,,,,,,,,,,,,,,,,96,148,1,0,0,response1disk,9,60,-7,17,1,0,0,rectangle,-7,17,1,0,0,7,7,"[271,311,75,59,144,313,152,124,88,125,135,178,278,94,96,267,23,256,159,141]",-7,17,1,0,0,0,59,59,72,1,,,,,,,,,,,,,,,,,,,,,,,
,,,,,,,,,,,,,,,,,,,,,,,,,,,,,,,,,,,,,,,,,,,5f8846eef3c64e2b5bc33259,5fe192a66a3657c24e3ae120,2020-12-22_07h31.52.660,FlowerSimilarity_Experiment,2020.1.2,Win32,60,5fe17d4a51f3a9c1a60f9869,,,,,,,,,,,,,,,,,,,1,FF,,7,0.92467,,,,,,,,,,,,,,,,,,,,,,,,,,,,,,,,,,48,91,1,0,0,response1disk,5,61,5,10,1,0,0,rectangle,5,10,1,0,0,7,2,"[271,311,75,59,144,313,152,124,88,125,135,178,278,94,96,267,23,256,159,141]",5,10,1,0,0,0,60,60,82,1,,,,,,,,,,,,,,,,,,,,,,,
,,,,,,,,,,,,,,,,,,,,,,,,,,,,,,,,,,,,,,,,,,,5f8846eef3c64e2b5bc33259,5fe192a66a3657c24e3ae120,2020-12-22_07h31.52.660,FlowerSimilarity_Experiment,2020.1.2,Win32,60,5fe17d4a51f3a9c1a60f9869,,,,,,,,,,,,,,,,,,,6,FF,,0,1.21422,,,,,,,,,,,,,,,,,,,,,,,,,,,,,,,,,,-66,142,1,0,0,response7disk,6,62,9,-18,1,0,0,rectangle,9,-18,1,0,0,7,5,"[271,311,75,59,144,313,152,124,88,125,135,178,278,94,96,267,23,256,159,141]",9,-18,1,0,0,0,61,61,91,1,,,,,,,,,,,,,,,,,,,,,,,
,,,,,,,,,,,,,,,,,,,,,,,,,,,,,,,,,,,,,,,,,,,5f8846eef3c64e2b5bc33259,5fe192a66a3657c24e3ae120,2020-12-22_07h31.52.660,FlowerSimilarity_Experiment,2020.1.2,Win32,60,5fe17d4a51f3a9c1a60f9869,,,,,,,,,,,,,,,,,,,7,FF,,3,2.5745,,,,,,,,,,,,,,,,,,,,,,,,,,,,,,,,,,-51,-72,1,0,0,response5disk,2,63,4,3,1,0,0,rectangle,4,3,1,0,0,7,6,"[271,311,75,59,144,313,152,124,88,125,135,178,278,94,96,267,23,256,159,141]",4,3,1,0,0,0,62,62,138,1,,,,,,,,,,,,,,,,,,,,,,,
,,,,,,,,,,,,,,,,,,,,,,,,,,,,,,,,,,,,,,,,,,,5f8846eef3c64e2b5bc33259,5fe192a66a3657c24e3ae120,2020-12-22_07h31.52.660,FlowerSimilarity_Experiment,2020.1.2,Win32,60,5fe17d4a51f3a9c1a60f9869,,,,,,,,,,,,,,,,,,,8,PF,,5,5.515815,,,,,,,,,,,,,,,,,,,,,,,,,,,,,,,,,,110,-38,1,0,0,response3disk,9,64,43,9,1,0,0,rectangle,43,9,1,0,0,7,7,"[271,311,75,59,144,313,152,124,88,125,135,178,278,94,96,267,23,256,159,141]",43,9,1,0,0,0,63,63,42,1,,,,,,,,,,,,,,,,,,,,,,,
,,,,,,,,,,,,,,,,,,,,,,,,,,,,,,,,,,,,,,,,,,,5f8846eef3c64e2b5bc33259,5fe192a66a3657c24e3ae120,2020-12-22_07h31.52.660,FlowerSimilarity_Experiment,2020.1.2,Win32,60,5fe17d4a51f3a9c1a60f9869,,,,,,,,,,,,,,,,,,,2,FF,,5,2.571815,,,,,,,,,,,,,,,,,,,,,,,,,,,,,,,,,,77,-49,1,0,0,response3disk,8,65,25,-10,1,0,0,rectangle,25,-10,1,0,0,7,1,"[271,311,75,59,144,313,152,124,88,125,135,178,278,94,96,267,23,256,159,141]",25,-10,1,0,0,0,64,64,62,1,,,,,,,,,,,,,,,,,,,,,,,
,,,,,,,,,,,,,,,,,,,,,,,,,,,,,,,,,,,,,,,,,,,5f8846eef3c64e2b5bc33259,5fe192a66a3657c24e3ae120,2020-12-22_07h31.52.660,FlowerSimilarity_Experiment,2020.1.2,Win32,60,5fe17d4a51f3a9c1a60f9869,,,,,,,,,,,,,,,,,,,3,FF,,3,1.603385,,,,,,,,,,,,,,,,,,,,,,,,,,,,,,,,,,-29,-144,1,0,0,response5disk,5,66,16,-19,1,0,0,rectangle,16,-19,1,0,0,7,0,"[271,311,75,59,144,313,152,124,88,125,135,178,278,94,96,267,23,256,159,141]",16,-19,1,0,0,0,65,65,101,1,,,,,,,,,,,,,,,,,,,,,,,
,,,,,,,,,,,,,,,,,,,,,,,,,,,,,,,,,,,,,,,,,,,5f8846eef3c64e2b5bc33259,5fe192a66a3657c24e3ae120,2020-12-22_07h31.52.660,FlowerSimilarity_Experiment,2020.1.2,Win32,60,5fe17d4a51f3a9c1a60f9869,,,,,,,,,,,,,,,,,,,5,FF,,2,2.24478,,,,,,,,,,,,,,,,,,,,,,,,,,,,,,,,,,-73,-52,1,0,0,response5disk,3,67,15,12,1,0,0,rectangle,15,12,1,0,0,7,3,"[271,311,75,59,144,313,152,124,88,125,135,178,278,94,96,267,23,256,159,141]",15,12,1,0,0,0,66,66,25,1,,,,,,,,,,,,,,,,,,,,,,,
,,,,,,,,,,,,,,,,,,,,,,,,,,,,,,,,,,,,,,,,,,,5f8846eef3c64e2b5bc33259,5fe192a66a3657c24e3ae120,2020-12-22_07h31.52.660,FlowerSimilarity_Experiment,2020.1.2,Win32,60,5fe17d4a51f3a9c1a60f9869,,,,,,,,,,,,,,,,,,,5,PF,,7,1.186135,,,,,,,,,,,,,,,,,,,,,,,,,,,,,,,,,,78,130,1,0,0,response1disk,4,68,11,13,1,0,0,rectangle,11,13,1,0,0,7,6,"[271,311,75,59,144,313,152,124,88,125,135,178,278,94,96,267,23,256,159,141]",11,13,1,0,0,0,67,67,54,1,,,,,,,,,,,,,,,,,,,,,,,
,,,,,,,,,,,,,,,,,,,,,,,,,,,,,,,,,,,,,,,,,,,5f8846eef3c64e2b5bc33259,5fe192a66a3657c24e3ae120,2020-12-22_07h31.52.660,FlowerSimilarity_Experiment,2020.1.2,Win32,60,5fe17d4a51f3a9c1a60f9869,,,,,,,,,,,,,,,,,,,3,FF,,7,1.142015,,,,,,,,,,,,,,,,,,,,,,,,,,,,,,,,,,48,96,1,0,0,response1disk,1,69,-2,6,1,0,0,rectangle,-2,6,1,0,0,7,7,"[271,311,75,59,144,313,152,124,88,125,135,178,278,94,96,267,23,256,159,141]",-2,6,1,0,0,0,68,68,125,1,,,,,,,,,,,,,,,,,,,,,,,
,,,,,,,,,,,,,,,,,,,,,,,,,,,,,,,,,,,,,,,,,,,5f8846eef3c64e2b5bc33259,5fe192a66a3657c24e3ae120,2020-12-22_07h31.52.660,FlowerSimilarity_Experiment,2020.1.2,Win32,60,5fe17d4a51f3a9c1a60f9869,,,,,,,,,,,,,,,,,,,3,FF,,7,1.010515,,,,,,,,,,,,,,,,,,,,,,,,,,,,,,,,,,70,122,1,0,0,response1disk,9,70,16,-4,1,0,0,rectangle,16,-4,1,0,0,7,5,"[271,311,75,59,144,313,152,124,88,125,135,178,278,94,96,267,23,256,159,141]",16,-4,1,0,0,0,69,69,143,1,,,,,,,,,,,,,,,,,,,,,,,
,,,,,,,,,,,,,,,,,,,,,,,,,,,,,,,,,,,,,,,,,,,5f8846eef3c64e2b5bc33259,5fe192a66a3657c24e3ae120,2020-12-22_07h31.52.660,FlowerSimilarity_Experiment,2020.1.2,Win32,60,5fe17d4a51f3a9c1a60f9869,,,,,,,,,,,,,,,,,,,2,PF,,7,0.964765,,,,,,,,,,,,,,,,,,,,,,,,,,,,,,,,,,76,115,1,0,0,response1disk,6,71,0,-10,1,0,0,rectangle,0,-10,1,0,0,7,7,"[271,311,75,59,144,313,152,124,88,125,135,178,278,94,96,267,23,256,159,141]",0,-10,1,0,0,0,70,70,113,1,,,,,,,,,,,,,,,,,,,,,,,
,,,,,,,,,,,,,,,,,,,,,,,,,,,,,,,,,,,,,,,,,,,5f8846eef3c64e2b5bc33259,5fe192a66a3657c24e3ae120,2020-12-22_07h31.52.660,FlowerSimilarity_Experiment,2020.1.2,Win32,60,5fe17d4a51f3a9c1a60f9869,,,,,,,,,,,,,,,,,,,9,FF,,7,0.98034,,,,,,,,,,,,,,,,,,,,,,,,,,,,,,,,,,64,119,1,0,0,response1disk,5,72,-1,-7,1,0,0,rectangle,-1,-7,1,0,0,7,6,"[271,311,75,59,144,313,152,124,88,125,135,178,278,94,96,267,23,256,159,141]",-1,-7,1,0,0,0,71,71,128,1,,,,,,,,,,,,,,,,,,,,,,,
,,,,,,,,,,,,,,,,,,,,,,,,,,,,,,,,,,,,,,,,,,,5f8846eef3c64e2b5bc33259,5fe192a66a3657c24e3ae120,2020-12-22_07h31.52.660,FlowerSimilarity_Experiment,2020.1.2,Win32,60,5fe17d4a51f3a9c1a60f9869,,,,,,,,,,,,,,,,,,,5,FF,,1,2.005435,,,,,,,,,,,,,,,,,,,,,,,,,,,,,,,,,,-99,71,1,0,0,response7disk,8,73,-25,-8,1,0,0,rectangle,-25,-8,1,0,0,7,2,"[271,311,75,59,144,313,152,124,88,125,135,178,278,94,96,267,23,256,159,141]",-25,-8,1,0,0,0,72,72,16,1,,,,,,,,,,,,,,,,,,,,,,,
,,,,,,,,,,,,,,,,,,,,,,,,,,,,,,,,,,,,,,,,,,,5f8846eef3c64e2b5bc33259,5fe192a66a3657c24e3ae120,2020-12-22_07h31.52.660,FlowerSimilarity_Experiment,2020.1.2,Win32,60,5fe17d4a51f3a9c1a60f9869,,,,,,,,,,,,,,,,,,,2,PF,,4,1.666315,,,,,,,,,,,,,,,,,,,,,,,,,,,,,,,,,,75,-90,1,0,0,response3disk,8,74,19,-14,1,0,0,rectangle,19,-14,1,0,0,7,7,"[271,311,75,59,144,313,152,124,88,125,135,178,278,94,96,267,23,256,159,141]",19,-14,1,0,0,0,73,73,52,1,,,,,,,,,,,,,,,,,,,,,,,
,,,,,,,,,,,,,,,,,,,,,,,,,,,,,,,,,,,,,,,,,,,5f8846eef3c64e2b5bc33259,5fe192a66a3657c24e3ae120,2020-12-22_07h31.52.660,FlowerSimilarity_Experiment,2020.1.2,Win32,60,5fe17d4a51f3a9c1a60f9869,,,,,,,,,,,,,,,,,,,6,PF,,1,1.536625,,,,,,,,,,,,,,,,,,,,,,,,,,,,,,,,,,-122,72,1,0,0,response7disk,9,75,-14,1,1,0,0,rectangle,71,115,1,0,0,7,7,"[271,311,75,59,144,313,152,124,88,125,135,178,278,94,96,267,23,256,159,141]",3,-17,1,0,0,0,74,74,45,1,response1disk_3,rectangle,,,,,,,,,,,,,,,,,,,,,
,,,,,,,,,,,,,,,,,,,,,,,,,,,,,,,,,,,,,,,,,,,5f8846eef3c64e2b5bc33259,5fe192a66a3657c24e3ae120,2020-12-22_07h31.52.660,FlowerSimilarity_Experiment,2020.1.2,Win32,60,5fe17d4a51f3a9c1a60f9869,,,,,,,,,,,,,,,,,,,4,FF,,7,1.239055,,,,,,,,,,,,,,,,,,,,,,,,,,,,,,,,,,81,125,1,0,0,response1disk,5,76,9,1,1,0,0,rectangle,9,1,1,0,0,7,0,"[271,311,75,59,144,313,152,124,88,125,135,178,278,94,96,267,23,256,159,141]",9,1,1,0,0,0,75,75,116,1,,,,,,,,,,,,,,,,,,,,,,,
,,,,,,,,,,,,,,,,,,,,,,,,,,,,,,,,,,,,,,,,,,,5f8846eef3c64e2b5bc33259,5fe192a66a3657c24e3ae120,2020-12-22_07h31.52.660,FlowerSimilarity_Experiment,2020.1.2,Win32,60,5fe17d4a51f3a9c1a60f9869,,,,,,,,,,,,,,,,,,,1,PF,,6,1.892365,,,,,,,,,,,,,,,,,,,,,,,,,,,,,,,,,,131,52,1,0,0,response1disk,7,77,23,-3,1,0,0,rectangle,23,-3,1,0,0,7,7,"[271,311,75,59,144,313,152,124,88,125,135,178,278,94,96,267,23,256,159,141]",23,-3,1,0,0,0,76,76,150,1,,,,,,,,,,,,,,,,,,,,,,,
,,,,,,,,,,,,,,,,,,,,,,,,,,,,,,,,,,,,,,,,,,,5f8846eef3c64e2b5bc33259,5fe192a66a3657c24e3ae120,2020-12-22_07h31.52.660,FlowerSimilarity_Experiment,2020.1.2,Win32,60,5fe17d4a51f3a9c1a60f9869,,,,,,,,,,,,,,,,,,,7,PF,,6,1.23412,,,,,,,,,,,,,,,,,,,,,,,,,,,,,,,,,,128,92,1,0,0,response1disk,6,78,4,12,1,0,0,rectangle,4,12,1,0,0,7,2,"[271,311,75,59,144,313,152,124,88,125,135,178,278,94,96,267,23,256,159,141]",4,12,1,0,0,0,77,77,29,1,,,,,,,,,,,,,,,,,,,,,,,
,,,,,,,,,,,,,,,,,,,,,,,,,,,,,,,,,,,,,,,,,,,5f8846eef3c64e2b5bc33259,5fe192a66a3657c24e3ae120,2020-12-22_07h31.52.660,FlowerSimilarity_Experiment,2020.1.2,Win32,60,5fe17d4a51f3a9c1a60f9869,,,,,,,,,,,,,,,,,,,2,FF,,7,2.15468,,,,,,,,,,,,,,,,,,,,,,,,,,,,,,,,,,91,133,1,0,0,response1disk,6,79,8,9,1,0,0,rectangle,8,9,1,0,0,7,6,"[271,311,75,59,144,313,152,124,88,125,135,178,278,94,96,267,23,256,159,141]",8,9,1,0,0,0,78,78,40,1,,,,,,,,,,,,,,,,,,,,,,,
,,,,,,,,,,,,,,,,,,,,,,,,,,,,,,,,,,,,,,,,,,,5f8846eef3c64e2b5bc33259,5fe192a66a3657c24e3ae120,2020-12-22_07h31.52.660,FlowerSimilarity_Experiment,2020.1.2,Win32,60,5fe17d4a51f3a9c1a60f9869,,,,,,,,,,,,,,,,,,,6,FF,,7,0.96719,,,,,,,,,,,,,,,,,,,,,,,,,,,,,,,,,,68,133,1,0,0,response1disk,5,80,-16,9,1,0,0,rectangle,-16,9,1,0,0,7,3,"[271,311,75,59,144,313,152,124,88,125,135,178,278,94,96,267,23,256,159,141]",-16,9,1,0,0,0,79,79,126,1,,,,,,,,,,,,,,,,,,,,,,,
,,,,,,,,,,,,,,,,,,,,,,,,,,,,,,,,,,,,,,,,,,,5f8846eef3c64e2b5bc33259,5fe192a66a3657c24e3ae120,2020-12-22_07h31.52.660,FlowerSimilarity_Experiment,2020.1.2,Win32,60,5fe17d4a51f3a9c1a60f9869,,,,,,,,,,,,,,,,,,,2,PF,,4,2.252165,,,,,,,,,,,,,,,,,,,,,,,,,,,,,,,,,,59,-96,1,0,0,response3disk,5,81,2,-3,1,0,0,rectangle,2,-3,1,0,0,7,4,"[271,311,75,59,144,313,152,124,88,125,135,178,278,94,96,267,23,256,159,141]",2,-3,1,0,0,0,80,80,147,1,,,,,,,,,,,,,,,,,,,,,,,
,,,,,,,,,,,,,,,,,,,,,,,,,,,,,,,,,,,,,,,,,,,5f8846eef3c64e2b5bc33259,5fe192a66a3657c24e3ae120,2020-12-22_07h31.52.660,FlowerSimilarity_Experiment,2020.1.2,Win32,60,5fe17d4a51f3a9c1a60f9869,,,,,,,,,,,,,,,,,,,2,PF,,0,1.383275,,,,,,,,,,,,,,,,,,,,,,,,,,,,,,,,,,-66,97,1,0,0,response7disk,2,82,14,-3,1,0,0,rectangle,14,-3,1,0,0,7,7,"[271,311,75,59,144,313,152,124,88,125,135,178,278,94,96,267,23,256,159,141]",14,-3,1,0,0,0,81,81,14,1,,,,,,,,,,,,,,,,,,,,,,,
,,,,,,,,,,,,,,,,,,,,,,,,,,,,,,,,,,,,,,,,,,,5f8846eef3c64e2b5bc33259,5fe192a66a3657c24e3ae120,2020-12-22_07h31.52.660,FlowerSimilarity_Experiment,2020.1.2,Win32,60,5fe17d4a51f3a9c1a60f9869,,,,,,,,,,,,,,,,,,,7,FF,,2,1.670525,,,,,,,,,,,,,,,,,,,,,,,,,,,,,,,,,,-93,-54,1,0,0,response5disk,5,83,-14,-13,1,0,0,rectangle,-14,-13,1,0,0,7,2,"[271,311,75,59,144,313,152,124,88,125,135,178,278,94,96,267,23,256,159,141]",-14,-13,1,0,0,0,82,82,156,1,,,,,,,,,,,,,,,,,,,,,,,
,,,,,,,,,,,,,,,,,,,,,,,,,,,,,,,,,,,,,,,,,,,5f8846eef3c64e2b5bc33259,5fe192a66a3657c24e3ae120,2020-12-22_07h31.52.660,FlowerSimilarity_Experiment,2020.1.2,Win32,60,5fe17d4a51f3a9c1a60f9869,,,,,,,,,,,,,,,,,,,9,FF,,6,1.37798,,,,,,,,,,,,,,,,,,,,,,,,,,,,,,,,,,115,56,1,0,0,response1disk,2,84,3,10,1,0,0,rectangle,3,10,1,0,0,7,0,"[271,311,75,59,144,313,152,124,88,125,135,178,278,94,96,267,23,256,159,141]",3,10,1,0,0,0,83,83,11,1,,,,,,,,,,,,,,,,,,,,,,,
,,,,,,,,,,,,,,,,,,,,,,,,,,,,,,,,,,,,,,,,,,,5f8846eef3c64e2b5bc33259,5fe192a66a3657c24e3ae120,2020-12-22_07h31.52.660,FlowerSimilarity_Experiment,2020.1.2,Win32,60,5fe17d4a51f3a9c1a60f9869,,,,,,,,,,,,,,,,,,,2,PF,,5,3.88391,,,,,,,,,,,,,,,,,,,,,,,,,,,,,,,,,,149,-61,1,0,0,response3disk,1,85,37,-5,1,0,0,rectangle,37,-5,1,0,0,7,2,"[271,311,75,59,144,313,152,124,88,125,135,178,278,94,96,267,23,256,159,141]",37,-5,1,0,0,0,84,84,9,1,,,,,,,,,,,,,,,,,,,,,,,
,,,,,,,,,,,,,,,,,,,,,,,,,,,,,,,,,,,,,,,,,,,5f8846eef3c64e2b5bc33259,5fe192a66a3657c24e3ae120,2020-12-22_07h31.52.660,FlowerSimilarity_Experiment,2020.1.2,Win32,60,5fe17d4a51f3a9c1a60f9869,,,,,,,,,,,,,,,,,,,1,FF,,6,4.40102,,,,,,,,,,,,,,,,,,,,,,,,,,,,,,,,,,125,39,1,0,0,response1disk,3,86,11,-13,1,0,0,rectangle,11,-13,1,0,0,7,3,"[271,311,75,59,144,313,152,124,88,125,135,178,278,94,96,267,23,256,159,141]",11,-13,1,0,0,0,85,85,99,1,,,,,,,,,,,,,,,,,,,,,,,
,,,,,,,,,,,,,,,,,,,,,,,,,,,,,,,,,,,,,,,,,,,5f8846eef3c64e2b5bc33259,5fe192a66a3657c24e3ae120,2020-12-22_07h31.52.660,FlowerSimilarity_Experiment,2020.1.2,Win32,60,5fe17d4a51f3a9c1a60f9869,,,,,,,,,,,,,,,,,,,3,FF,,0,1.15597,,,,,,,,,,,,,,,,,,,,,,,,,,,,,,,,,,-56,112,1,0,0,response7disk,7,87,-8,13,1,0,0,rectangle,-8,13,1,0,0,7,6,"[271,311,75,59,144,313,152,124,88,125,135,178,278,94,96,267,23,256,159,141]",-8,13,1,0,0,0,86,86,118,1,,,,,,,,,,,,,,,,,,,,,,,
,,,,,,,,,,,,,,,,,,,,,,,,,,,,,,,,,,,,,,,,,,,5f8846eef3c64e2b5bc33259,5fe192a66a3657c24e3ae120,2020-12-22_07h31.52.660,FlowerSimilarity_Experiment,2020.1.2,Win32,60,5fe17d4a51f3a9c1a60f9869,,,,,,,,,,,,,,,,,,,7,PF,,7,1.145825,,,,,,,,,,,,,,,,,,,,,,,,,,,,,,,,,,83,105,1,0,0,response1disk,9,88,-3,3,1,0,0,rectangle,100,-54,1,0,0,5,5,"[271,311,75,59,144,313,152,124,88,125,135,178,278,94,96,267,23,256,159,141]",14,-1,1,0,0,0,87,87,10,1,response3disk_3,rectangle,,,,,,,,,,,,,,,,,,,,,
,,,,,,,,,,,,,,,,,,,,,,,,,,,,,,,,,,,,,,,,,,,5f8846eef3c64e2b5bc33259,5fe192a66a3657c24e3ae120,2020-12-22_07h31.52.660,FlowerSimilarity_Experiment,2020.1.2,Win32,60,5fe17d4a51f3a9c1a60f9869,,,,,,,,,,,,,,,,,,,5,FF,,0,1.12683,,,,,,,,,,,,,,,,,,,,,,,,,,,,,,,,,,-47,163,1,0,0,response7disk,5,89,-15,8,1,0,0,rectangle,-15,8,1,0,0,5,2,"[271,311,75,59,144,313,152,124,88,125,135,178,278,94,96,267,23,256,159,141]",-15,8,1,0,0,0,88,88,19,1,,,,,,,,,,,,,,,,,,,,,,,
,,,,,,,,,,,,,,,,,,,,,,,,,,,,,,,,,,,,,,,,,,,5f8846eef3c64e2b5bc33259,5fe192a66a3657c24e3ae120,2020-12-22_07h31.52.660,FlowerSimilarity_Experiment,2020.1.2,Win32,60,5fe17d4a51f3a9c1a60f9869,,,,,,,,,,,,,,,,,,,4,FF,,2,1.7561,,,,,,,,,,,,,,,,,,,,,,,,,,,,,,,,,,-117,-42,1,0,0,response5disk,9,90,-38,-19,1,0,0,rectangle,-38,-19,1,0,0,5,5,"[271,311,75,59,144,313,152,124,88,125,135,178,278,94,96,267,23,256,159,141]",-38,-19,1,0,0,0,89,89,90,1,,,,,,,,,,,,,,,,,,,,,,,
,,,,,,,,,,,,,,,,,,,,,,,,,,,,,,,,,,,,,,,,,,,5f8846eef3c64e2b5bc33259,5fe192a66a3657c24e3ae120,2020-12-22_07h31.52.660,FlowerSimilarity_Experiment,2020.1.2,Win32,60,5fe17d4a51f3a9c1a60f9869,,,,,,,,,,,,,,,,,,,8,FF,,3,1.64522,,,,,,,,,,,,,,,,,,,,,,,,,,,,,,,,,,-74,-113,1,0,0,response5disk,2,91,-6,-6,1,0,0,rectangle,-6,-6,1,0,0,5,6,"[271,311,75,59,144,313,152,124,88,125,135,178,278,94,96,267,23,256,159,141]",-6,-6,1,0,0,0,90,90,22,1,,,,,,,,,,,,,,,,,,,,,,,
,,,,,,,,,,,,,,,,,,,,,,,,,,,,,,,,,,,,,,,,,,,5f8846eef3c64e2b5bc33259,5fe192a66a3657c24e3ae120,2020-12-22_07h31.52.660,FlowerSimilarity_Experiment,2020.1.2,Win32,60,5fe17d4a51f3a9c1a60f9869,,,,,,,,,,,,,,,,,,,5,PF,,4,2.938735,,,,,,,,,,,,,,,,,,,,,,,,,,,,,,,,,,43,-109,1,0,0,response3disk,3,92,-2,0,1,0,0,rectangle,-2,0,1,0,0,5,2,"[271,311,75,59,144,313,152,124,88,125,135,178,278,94,96,267,23,256,159,141]",-2,0,1,0,0,0,91,91,109,1,,,,,,,,,,,,,,,,,,,,,,,
,,,,,,,,,,,,,,,,,,,,,,,,,,,,,,,,,,,,,,,,,,,5f8846eef3c64e2b5bc33259,5fe192a66a3657c24e3ae120,2020-12-22_07h31.52.660,FlowerSimilarity_Experiment,2020.1.2,Win32,60,5fe17d4a51f3a9c1a60f9869,,,,,,,,,,,,,,,,,,,1,FF,,7,1.4241,,,,,,,,,,,,,,,,,,,,,,,,,,,,,,,,,,52,127,1,0,0,response1disk,8,93,18,3,1,0,0,rectangle,18,3,1,0,0,5,4,"[271,311,75,59,144,313,152,124,88,125,135,178,278,94,96,267,23,256,159,141]",18,3,1,0,0,0,92,92,27,1,,,,,,,,,,,,,,,,,,,,,,,
,,,,,,,,,,,,,,,,,,,,,,,,,,,,,,,,,,,,,,,,,,,5f8846eef3c64e2b5bc33259,5fe192a66a3657c24e3ae120,2020-12-22_07h31.52.660,FlowerSimilarity_Experiment,2020.1.2,Win32,60,5fe17d4a51f3a9c1a60f9869,,,,,,,,,,,,,,,,,,,6,PF,,7,1.364815,,,,,,,,,,,,,,,,,,,,,,,,,,,,,,,,,,59,127,1,0,0,response1disk,8,94,-7,-1,1,0,0,rectangle,116,128,1,0,0,7,7,"[271,311,75,59,144,313,152,124,88,125,135,178,278,94,96,267,23,256,159,141]",23,-15,1,0,0,0,93,93,64,1,response1disk_3,rectangle,,,,,,,,,,,,,,,,,,,,,
,,,,,,,,,,,,,,,,,,,,,,,,,,,,,,,,,,,,,,,,,,,5f8846eef3c64e2b5bc33259,5fe192a66a3657c24e3ae120,2020-12-22_07h31.52.660,FlowerSimilarity_Experiment,2020.1.2,Win32,60,5fe17d4a51f3a9c1a60f9869,,,,,,,,,,,,,,,,,,,9,FF,,4,4.83562,,,,,,,,,,,,,,,,,,,,,,,,,,,,,,,,,,80,-123,1,0,0,response3disk,4,95,18,11,1,0,0,rectangle,18,11,1,0,0,7,3,"[271,311,75,59,144,313,152,124,88,125,135,178,278,94,96,267,23,256,159,141]",18,11,1,0,0,0,94,94,60,1,,,,,,,,,,,,,,,,,,,,,,,
,,,,,,,,,,,,,,,,,,,,,,,,,,,,,,,,,,,,,,,,,,,5f8846eef3c64e2b5bc33259,5fe192a66a3657c24e3ae120,2020-12-22_07h31.52.660,FlowerSimilarity_Experiment,2020.1.2,Win32,60,5fe17d4a51f3a9c1a60f9869,,,,,,,,,,,,,,,,,,,5,PF,,3,2.091875,,,,,,,,,,,,,,,,,,,,,,,,,,,,,,,,,,-55,-114,1,0,0,response5disk,2,96,-29,-13,1,0,0,rectangle,-106,-52,1,0,0,7,2,"[271,311,75,59,144,313,152,124,88,125,135,178,278,94,96,267,23,256,159,141]",-13,4,1,0,0,0,95,95,129,1,response5disk_3,rectangle,,,,,,,,,,,,,,,,,,,,,
,,,,,,,,,,,,,,,,,,,,,,,,,,,,,,,,,,,,,,,,,,,5f8846eef3c64e2b5bc33259,5fe192a66a3657c24e3ae120,2020-12-22_07h31.52.660,FlowerSimilarity_Experiment,2020.1.2,Win32,60,5fe17d4a51f3a9c1a60f9869,,,,,,,,,,,,,,,,,,,8,FF,,0,1.14269,,,,,,,,,,,,,,,,,,,,,,,,,,,,,,,,,,-53,119,1,0,0,response7disk,8,97,4,4,1,0,0,rectangle,4,4,1,0,0,7,4,"[271,311,75,59,144,313,152,124,88,125,135,178,278,94,96,267,23,256,159,141]",4,4,1,0,0,0,96,96,48,1,,,,,,,,,,,,,,,,,,,,,,,
,,,,,,,,,,,,,,,,,,,,,,,,,,,,,,,,,,,,,,,,,,,5f8846eef3c64e2b5bc33259,5fe192a66a3657c24e3ae120,2020-12-22_07h31.52.660,FlowerSimilarity_Experiment,2020.1.2,Win32,60,5fe17d4a51f3a9c1a60f9869,,,,,,,,,,,,,,,,,,,4,PF,,0,1.713875,,,,,,,,,,,,,,,,,,,,,,,,,,,,,,,,,,-60,94,1,0,0,response7disk,4,98,1,4,1,0,0,rectangle,1,4,1,0,0,7,0,"[271,311,75,59,144,313,152,124,88,125,135,178,278,94,96,267,23,256,159,141]",1,4,1,0,0,0,97,97,70,1,,,,,,,,,,,,,,,,,,,,,,,
,,,,,,,,,,,,,,,,,,,,,,,,,,,,,,,,,,,,,,,,,,,5f8846eef3c64e2b5bc33259,5fe192a66a3657c24e3ae120,2020-12-22_07h31.52.660,FlowerSimilarity_Experiment,2020.1.2,Win32,60,5fe17d4a51f3a9c1a60f9869,,,,,,,,,,,,,,,,,,,9,FF,,2,1.354845,,,,,,,,,,,,,,,,,,,,,,,,,,,,,,,,,,-111,-52,1,0,0,response5disk,6,99,3,7,1,0,0,rectangle,3,7,1,0,0,7,2,"[271,311,75,59,144,313,152,124,88,125,135,178,278,94,96,267,23,256,159,141]",3,7,1,0,0,0,98,98,117,1,,,,,,,,,,,,,,,,,,,,,,,
,,,,,,,,,,,,,,,,,,,,,,,,,,,,,,,,,,,,,,,,,,,5f8846eef3c64e2b5bc33259,5fe192a66a3657c24e3ae120,2020-12-22_07h31.52.660,FlowerSimilarity_Experiment,2020.1.2,Win32,60,5fe17d4a51f3a9c1a60f9869,,,,,,,,,,,,,,,,,,,3,FF,,2,1.686885,,,,,,,,,,,,,,,,,,,,,,,,,,,,,,,,,,-105,-86,1,0,0,response5disk,4,100,9,-3,1,0,0,rectangle,9,-3,1,0,0,7,3,"[271,311,75,59,144,313,152,124,88,125,135,178,278,94,96,267,23,256,159,141]",9,-3,1,0,0,0,99,99,110,1,,,,,,,,,,,,,,,,,,,,,,,
,,,,,,,,,,,,,,,,,,,,,,,,,,,,,,,,,,,,,,,,,,,5f8846eef3c64e2b5bc33259,5fe192a66a3657c24e3ae120,2020-12-22_07h31.52.660,FlowerSimilarity_Experiment,2020.1.2,Win32,60,5fe17d4a51f3a9c1a60f9869,,,,,,,,,,,,,,,,,,,1,PF,,5,2.892475,,,,,,,,,,,,,,,,,,,,,,,,,,,,,,,,,,134,-75,1,0,0,response3disk,2,101,-5,-6,1,0,0,rectangle,-5,-6,1,0,0,7,7,"[271,311,75,59,144,313,152,124,88,125,135,178,278,94,96,267,23,256,159,141]",-5,-6,1,0,0,0,100,100,24,1,,,,,,,,,,,,,,,,,,,,,,,
,,,,,,,,,,,,,,,,,,,,,,,,,,,,,,,,,,,,,,,,,,,5f8846eef3c64e2b5bc33259,5fe192a66a3657c24e3ae120,2020-12-22_07h31.52.660,FlowerSimilarity_Experiment,2020.1.2,Win32,60,5fe17d4a51f3a9c1a60f9869,,,,,,,,,,,,,,,,,,,6,PF,,6,2.97259,,,,,,,,,,,,,,,,,,,,,,,,,,,,,,,,,,135,43,1,0,0,response1disk,2,102,-13,-2,1,0,0,rectangle,-13,-2,1,0,0,7,3,"[271,311,75,59,144,313,152,124,88,125,135,178,278,94,96,267,23,256,159,141]",-13,-2,1,0,0,0,101,101,130,1,,,,,,,,,,,,,,,,,,,,,,,
,,,,,,,,,,,,,,,,,,,,,,,,,,,,,,,,,,,,,,,,,,,5f8846eef3c64e2b5bc33259,5fe192a66a3657c24e3ae120,2020-12-22_07h31.52.660,FlowerSimilarity_Experiment,2020.1.2,Win32,60,5fe17d4a51f3a9c1a60f9869,,,,,,,,,,,,,,,,,,,2,PF,,6,0.963175,,,,,,,,,,,,,,,,,,,,,,,,,,,,,,,,,,125,70,1,0,0,response1disk,9,103,1,9,1,0,0,rectangle,1,9,1,0,0,7,2,"[271,311,75,59,144,313,152,124,88,125,135,178,278,94,96,267,23,256,159,141]",1,9,1,0,0,0,102,102,39,1,,,,,,,,,,,,,,,,,,,,,,,
,,,,,,,,,,,,,,,,,,,,,,,,,,,,,,,,,,,,,,,,,,,5f8846eef3c64e2b5bc33259,5fe192a66a3657c24e3ae120,2020-12-22_07h31.52.660,FlowerSimilarity_Experiment,2020.1.2,Win32,60,5fe17d4a51f3a9c1a60f9869,,,,,,,,,,,,,,,,,,,6,FF,,6,0.98891,,,,,,,,,,,,,,,,,,,,,,,,,,,,,,,,,,113,68,1,0,0,response1disk,8,104,-32,2,1,0,0,rectangle,-32,2,1,0,0,7,7,"[271,311,75,59,144,313,152,124,88,125,135,178,278,94,96,267,23,256,159,141]",-32,2,1,0,0,0,103,103,133,1,,,,,,,,,,,,,,,,,,,,,,,
,,,,,,,,,,,,,,,,,,,,,,,,,,,,,,,,,,,,,,,,,,,5f8846eef3c64e2b5bc33259,5fe192a66a3657c24e3ae120,2020-12-22_07h31.52.660,FlowerSimilarity_Experiment,2020.1.2,Win32,60,5fe17d4a51f3a9c1a60f9869,,,,,,,,,,,,,,,,,,,5,FF,,6,0.994275,,,,,,,,,,,,,,,,,,,,,,,,,,,,,,,,,,143,68,1,0,0,response1disk,1,105,-2,1,1,0,0,rectangle,-2,1,1,0,0,7,7,"[271,311,75,59,144,313,152,124,88,125,135,178,278,94,96,267,23,256,159,141]",-2,1,1,0,0,0,104,104,131,1,,,,,,,,,,,,,,,,,,,,,,,
,,,,,,,,,,,,,,,,,,,,,,,,,,,,,,,,,,,,,,,,,,,5f8846eef3c64e2b5bc33259,5fe192a66a3657c24e3ae120,2020-12-22_07h31.52.660,FlowerSimilarity_Experiment,2020.1.2,Win32,60,5fe17d4a51f3a9c1a60f9869,,,,,,,,,,,,,,,,,,,3,FF,,3,1.59239,,,,,,,,,,,,,,,,,,,,,,,,,,,,,,,,,,-46,-72,1,0,0,response5disk,8,106,-10,-1,1,0,0,rectangle,-10,-1,1,0,0,7,6,"[271,311,75,59,144,313,152,124,88,125,135,178,278,94,96,267,23,256,159,141]",-10,-1,1,0,0,0,105,105,44,1,,,,,,,,,,,,,,,,,,,,,,,
,,,,,,,,,,,,,,,,,,,,,,,,,,,,,,,,,,,,,,,,,,,5f8846eef3c64e2b5bc33259,5fe192a66a3657c24e3ae120,2020-12-22_07h31.52.660,FlowerSimilarity_Experiment,2020.1.2,Win32,60,5fe17d4a51f3a9c1a60f9869,,,,,,,,,,,,,,,,,,,4,PF,,3,1.212535,,,,,,,,,,,,,,,,,,,,,,,,,,,,,,,,,,-63,-97,1,0,0,response5disk,9,107,-19,-11,1,0,0,rectangle,-19,-11,1,0,0,7,0,"[271,311,75,59,144,313,152,124,88,125,135,178,278,94,96,267,23,256,159,141]",-19,-11,1,0,0,0,106,106,75,1,,,,,,,,,,,,,,,,,,,,,,,
,,,,,,,,,,,,,,,,,,,,,,,,,,,,,,,,,,,,,,,,,,,5f8846eef3c64e2b5bc33259,5fe192a66a3657c24e3ae120,2020-12-22_07h31.52.660,FlowerSimilarity_Experiment,2020.1.2,Win32,60,5fe17d4a51f3a9c1a60f9869,,,,,,,,,,,,,,,,,,,4,FF,,2,2.755605,,,,,,,,,,,,,,,,,,,,,,,,,,,,,,,,,,-125,-62,1,0,0,response5disk,3,108,-6,-10,1,0,0,rectangle,-6,-10,1,0,0,7,7,"[271,311,75,59,144,313,152,124,88,125,135,178,278,94,96,267,23,256,159,141]",-6,-10,1,0,0,0,107,107,77,1,,,,,,,,,,,,,,,,,,,,,,,
,,,,,,,,,,,,,,,,,,,,,,,,,,,,,,,,,,,,,,,,,,,5f8846eef3c64e2b5bc33259,5fe192a66a3657c24e3ae120,2020-12-22_07h31.52.660,FlowerSimilarity_Experiment,2020.1.2,Win32,60,5fe17d4a51f3a9c1a60f9869,,,,,,,,,,,,,,,,,,,9,PF,,1,1.25517,,,,,,,,,,,,,,,,,,,,,,,,,,,,,,,,,,-80,51,1,0,0,response7disk,1,109,-32,5,1,0,0,rectangle,-32,5,1,0,0,7,0,"[271,311,75,59,144,313,152,124,88,125,135,178,278,94,96,267,23,256,159,141]",-32,5,1,0,0,0,108,108,74,1,,,,,,,,,,,,,,,,,,,,,,,
,,,,,,,,,,,,,,,,,,,,,,,,,,,,,,,,,,,,,,,,,,,5f8846eef3c64e2b5bc33259,5fe192a66a3657c24e3ae120,2020-12-22_07h31.52.660,FlowerSimilarity_Experiment,2020.1.2,Win32,60,5fe17d4a51f3a9c1a60f9869,,,,,,,,,,,,,,,,,,,8,FF,,7,1.66329,,,,,,,,,,,,,,,,,,,,,,,,,,,,,,,,,,68,108,1,0,0,response1disk,4,110,19,2,1,0,0,rectangle,19,2,1,0,0,7,6,"[271,311,75,59,144,313,152,124,88,125,135,178,278,94,96,267,23,256,159,141]",19,2,1,0,0,0,109,109,88,1,,,,,,,,,,,,,,,,,,,,,,,
,,,,,,,,,,,,,,,,,,,,,,,,,,,,,,,,,,,,,,,,,,,5f8846eef3c64e2b5bc33259,5fe192a66a3657c24e3ae120,2020-12-22_07h31.52.660,FlowerSimilarity_Experiment,2020.1.2,Win32,60,5fe17d4a51f3a9c1a60f9869,,,,,,,,,,,,,,,,,,,4,PF,,3,5.2489,,,,,,,,,,,,,,,,,,,,,,,,,,,,,,,,,,-91,-128,1,0,0,response5disk,1,111,-12,14,1,0,0,rectangle,-12,14,1,0,0,7,3,"[271,311,75,59,144,313,152,124,88,125,135,178,278,94,96,267,23,256,159,141]",-12,14,1,0,0,0,110,110,115,1,,,,,,,,,,,,,,,,,,,,,,,
,,,,,,,,,,,,,,,,,,,,,,,,,,,,,,,,,,,,,,,,,,,5f8846eef3c64e2b5bc33259,5fe192a66a3657c24e3ae120,2020-12-22_07h31.52.660,FlowerSimilarity_Experiment,2020.1.2,Win32,60,5fe17d4a51f3a9c1a60f9869,,,,,,,,,,,,,,,,,,,5,PF,,0,1.6391,,,,,,,,,,,,,,,,,,,,,,,,,,,,,,,,,,-32,146,1,0,0,response7disk,8,112,11,14,1,0,0,rectangle,11,14,1,0,0,7,1,"[271,311,75,59,144,313,152,124,88,125,135,178,278,94,96,267,23,256,159,141]",11,14,1,0,0,0,111,111,149,1,,,,,,,,,,,,,,,,,,,,,,,
,,,,,,,,,,,,,,,,,,,,,,,,,,,,,,,,,,,,,,,,,,,5f8846eef3c64e2b5bc33259,5fe192a66a3657c24e3ae120,2020-12-22_07h31.52.660,FlowerSimilarity_Experiment,2020.1.2,Win32,60,5fe17d4a51f3a9c1a60f9869,,,,,,,,,,,,,,,,,,,5,PF,,7,1.21171,,,,,,,,,,,,,,,,,,,,,,,,,,,,,,,,,,71,117,1,0,0,response1disk,1,113,33,-7,1,0,0,rectangle,33,-7,1,0,0,7,5,"[271,311,75,59,144,313,152,124,88,125,135,178,278,94,96,267,23,256,159,141]",33,-7,1,0,0,0,112,112,159,1,,,,,,,,,,,,,,,,,,,,,,,
,,,,,,,,,,,,,,,,,,,,,,,,,,,,,,,,,,,,,,,,,,,5f8846eef3c64e2b5bc33259,5fe192a66a3657c24e3ae120,2020-12-22_07h31.52.660,FlowerSimilarity_Experiment,2020.1.2,Win32,60,5fe17d4a51f3a9c1a60f9869,,,,,,,,,,,,,,,,,,,6,FF,,3,3.39639,,,,,,,,,,,,,,,,,,,,,,,,,,,,,,,,,,-55,-88,1,0,0,response5disk,4,114,-20,9,1,0,0,rectangle,-20,9,1,0,0,7,4,"[271,311,75,59,144,313,152,124,88,125,135,178,278,94,96,267,23,256,159,141]",-20,9,1,0,0,0,113,113,56,1,,,,,,,,,,,,,,,,,,,,,,,
,,,,,,,,,,,,,,,,,,,,,,,,,,,,,,,,,,,,,,,,,,,5f8846eef3c64e2b5bc33259,5fe192a66a3657c24e3ae120,2020-12-22_07h31.52.660,FlowerSimilarity_Experiment,2020.1.2,Win32,60,5fe17d4a51f3a9c1a60f9869,,,,,,,,,,,,,,,,,,,1,FF,,3,1.26903,,,,,,,,,,,,,,,,,,,,,,,,,,,,,,,,,,-71,-133,1,0,0,response5disk,6,115,-1,-5,1,0,0,rectangle,-1,-5,1,0,0,7,6,"[271,311,75,59,144,313,152,124,88,125,135,178,278,94,96,267,23,256,159,141]",-1,-5,1,0,0,0,114,114,58,1,,,,,,,,,,,,,,,,,,,,,,,
,,,,,,,,,,,,,,,,,,,,,,,,,,,,,,,,,,,,,,,,,,,5f8846eef3c64e2b5bc33259,5fe192a66a3657c24e3ae120,2020-12-22_07h31.52.660,FlowerSimilarity_Experiment,2020.1.2,Win32,60,5fe17d4a51f3a9c1a60f9869,,,,,,,,,,,,,,,,,,,1,FF,,7,1.706985,,,,,,,,,,,,,,,,,,,,,,,,,,,,,,,,,,85,114,1,0,0,response1disk,7,116,30,-2,1,0,0,rectangle,30,-2,1,0,0,7,0,"[271,311,75,59,144,313,152,124,88,125,135,178,278,94,96,267,23,256,159,141]",30,-2,1,0,0,0,115,115,137,1,,,,,,,,,,,,,,,,,,,,,,,
,,,,,,,,,,,,,,,,,,,,,,,,,,,,,,,,,,,,,,,,,,,5f8846eef3c64e2b5bc33259,5fe192a66a3657c24e3ae120,2020-12-22_07h31.52.660,FlowerSimilarity_Experiment,2020.1.2,Win32,60,5fe17d4a51f3a9c1a60f9869,,,,,,,,,,,,,,,,,,,6,PF,,7,1.136535,,,,,,,,,,,,,,,,,,,,,,,,,,,,,,,,,,63,133,1,0,0,response1disk,7,117,10,7,1,0,0,rectangle,10,7,1,0,0,7,1,"[271,311,75,59,144,313,152,124,88,125,135,178,278,94,96,267,23,256,159,141]",10,7,1,0,0,0,116,116,50,1,,,,,,,,,,,,,,,,,,,,,,,
,,,,,,,,,,,,,,,,,,,,,,,,,,,,,,,,,,,,,,,,,,,5f8846eef3c64e2b5bc33259,5fe192a66a3657c24e3ae120,2020-12-22_07h31.52.660,FlowerSimilarity_Experiment,2020.1.2,Win32,60,5fe17d4a51f3a9c1a60f9869,,,,,,,,,,,,,,,,,,,9,FF,,7,1.34753,,,,,,,,,,,,,,,,,,,,,,,,,,,,,,,,,,78,146,1,0,0,response1disk,3,118,18,17,1,0,0,rectangle,18,17,1,0,0,7,4,"[271,311,75,59,144,313,152,124,88,125,135,178,278,94,96,267,23,256,159,141]",18,17,1,0,0,0,117,117,141,1,,,,,,,,,,,,,,,,,,,,,,,
,,,,,,,,,,,,,,,,,,,,,,,,,,,,,,,,,,,,,,,,,,,5f8846eef3c64e2b5bc33259,5fe192a66a3657c24e3ae120,2020-12-22_07h31.52.660,FlowerSimilarity_Experiment,2020.1.2,Win32,60,5fe17d4a51f3a9c1a60f9869,,,,,,,,,,,,,,,,,,,3,PF,,1,1.385475,,,,,,,,,,,,,,,,,,,,,,,,,,,,,,,,,,-130,64,1,0,0,response7disk,5,119,-4,13,1,0,0,rectangle,-4,13,1,0,0,7,1,"[271,311,75,59,144,313,152,124,88,125,135,178,278,94,96,267,23,256,159,141]",-4,13,1,0,0,0,118,118,66,1,,,,,,,,,,,,,,,,,,,,,,,
,,,,,,,,,,,,,,,,,,,,,,,,,,,,,,,,,,,,,,,,,,,5f8846eef3c64e2b5bc33259,5fe192a66a3657c24e3ae120,2020-12-22_07h31.52.660,FlowerSimilarity_Experiment,2020.1.2,Win32,60,5fe17d4a51f3a9c1a60f9869,,,,,,,,,,,,,,,,,,,3,FF,,6,1.375255,,,,,,,,,,,,,,,,,,,,,,,,,,,,,,,,,,148,80,1,0,0,response1disk,6,120,6,12,1,0,0,rectangle,6,12,1,0,0,7,0,"[271,311,75,59,144,313,152,124,88,125,135,178,278,94,96,267,23,256,159,141]",6,12,1,0,0,0,119,119,95,1,,,,,,,,,,,,,,,,,,,,,,,
,,,,,,,,,,,,,,,,,,,,,,,,,,,,,,,,,,,,,,,,,,,5f8846eef3c64e2b5bc33259,5fe192a66a3657c24e3ae120,2020-12-22_07h31.52.660,FlowerSimilarity_Experiment,2020.1.2,Win32,60,5fe17d4a51f3a9c1a60f9869,,,,,,,,,,,,,,,,,,,5,PF,,6,1.020715,,,,,,,,,,,,,,,,,,,,,,,,,,,,,,,,,,114,95,1,0,0,response1disk,9,121,18,16,1,0,0,rectangle,18,16,1,0,0,7,2,"[271,311,75,59,144,313,152,124,88,125,135,178,278,94,96,267,23,256,159,141]",18,16,1,0,0,0,120,120,136,1,,,,,,,,,,,,,,,,,,,,,,,
,,,,,,,,,,,,,,,,,,,,,,,,,,,,,,,,,,,,,,,,,,,5f8846eef3c64e2b5bc33259,5fe192a66a3657c24e3ae120,2020-12-22_07h31.52.660,FlowerSimilarity_Experiment,2020.1.2,Win32,60,5fe17d4a51f3a9c1a60f9869,,,,,,,,,,,,,,,,,,,1,FF,,1,1.44154,,,,,,,,,,,,,,,,,,,,,,,,,,,,,,,,,,-100,79,1,0,0,response7disk,9,122,1,0,1,0,0,rectangle,1,0,1,0,0,7,4,"[271,311,75,59,144,313,152,124,88,125,135,178,278,94,96,267,23,256,159,141]",1,0,1,0,0,0,121,121,123,1,,,,,,,,,,,,,,,,,,,,,,,
,,,,,,,,,,,,,,,,,,,,,,,,,,,,,,,,,,,,,,,,,,,5f8846eef3c64e2b5bc33259,5fe192a66a3657c24e3ae120,2020-12-22_07h31.52.660,FlowerSimilarity_Experiment,2020.1.2,Win32,60,5fe17d4a51f3a9c1a60f9869,,,,,,,,,,,,,,,,,,,9,PF,,0,1.213955,,,,,,,,,,,,,,,,,,,,,,,,,,,,,,,,,,-68,93,1,0,0,response7disk,9,123,-32,16,1,0,0,rectangle,-32,16,1,0,0,7,1,"[271,311,75,59,144,313,152,124,88,125,135,178,278,94,96,267,23,256,159,141]",-32,16,1,0,0,0,122,122,106,1,,,,,,,,,,,,,,,,,,,,,,,
,,,,,,,,,,,,,,,,,,,,,,,,,,,,,,,,,,,,,,,,,,,5f8846eef3c64e2b5bc33259,5fe192a66a3657c24e3ae120,2020-12-22_07h31.52.660,FlowerSimilarity_Experiment,2020.1.2,Win32,60,5fe17d4a51f3a9c1a60f9869,,,,,,,,,,,,,,,,,,,9,PF,,1,1.002405,,,,,,,,,,,,,,,,,,,,,,,,,,,,,,,,,,-127,53,1,0,0,response7disk,6,124,-12,3,1,0,0,rectangle,-86,-132,1,0,0,3,3,"[271,311,75,59,144,313,152,124,88,125,135,178,278,94,96,267,23,256,159,141]",18,10,1,0,0,0,123,123,148,1,response5disk_3,rectangle,,,,,,,,,,,,,,,,,,,,,
,,,,,,,,,,,,,,,,,,,,,,,,,,,,,,,,,,,,,,,,,,,5f8846eef3c64e2b5bc33259,5fe192a66a3657c24e3ae120,2020-12-22_07h31.52.660,FlowerSimilarity_Experiment,2020.1.2,Win32,60,5fe17d4a51f3a9c1a60f9869,,,,,,,,,,,,,,,,,,,8,PF,,2,1.82783,,,,,,,,,,,,,,,,,,,,,,,,,,,,,,,,,,-111,-81,1,0,0,response5disk,3,125,11,5,1,0,0,rectangle,-144,81,1,0,0,1,1,"[271,311,75,59,144,313,152,124,88,125,135,178,278,94,96,267,23,256,159,141]",4,-16,1,0,0,0,124,124,71,1,response7disk_3,rectangle,,,,,,,,,,,,,,,,,,,,,
,,,,,,,,,,,,,,,,,,,,,,,,,,,,,,,,,,,,,,,,,,,5f8846eef3c64e2b5bc33259,5fe192a66a3657c24e3ae120,2020-12-22_07h31.52.660,FlowerSimilarity_Experiment,2020.1.2,Win32,60,5fe17d4a51f3a9c1a60f9869,,,,,,,,,,,,,,,,,,,4,FF,,3,2.722705,,,,,,,,,,,,,,,,,,,,,,,,,,,,,,,,,,-44,-143,1,0,0,response5disk,6,126,-1,5,1,0,0,rectangle,-1,5,1,0,0,1,0,"[271,311,75,59,144,313,152,124,88,125,135,178,278,94,96,267,23,256,159,141]",-1,5,1,0,0,0,125,125,122,1,,,,,,,,,,,,,,,,,,,,,,,
,,,,,,,,,,,,,,,,,,,,,,,,,,,,,,,,,,,,,,,,,,,5f8846eef3c64e2b5bc33259,5fe192a66a3657c24e3ae120,2020-12-22_07h31.52.660,FlowerSimilarity_Experiment,2020.1.2,Win32,60,5fe17d4a51f3a9c1a60f9869,,,,,,,,,,,,,,,,,,,3,PF,,1,1.29789,,,,,,,,,,,,,,,,,,,,,,,,,,,,,,,,,,-115,84,1,0,0,response7disk,7,127,-1,-16,1,0,0,rectangle,-1,-16,1,0,0,1,4,"[271,311,75,59,144,313,152,124,88,125,135,178,278,94,96,267,23,256,159,141]",-1,-16,1,0,0,0,126,126,41,1,,,,,,,,,,,,,,,,,,,,,,,
,,,,,,,,,,,,,,,,,,,,,,,,,,,,,,,,,,,,,,,,,,,5f8846eef3c64e2b5bc33259,5fe192a66a3657c24e3ae120,2020-12-22_07h31.52.660,FlowerSimilarity_Experiment,2020.1.2,Win32,60,5fe17d4a51f3a9c1a60f9869,,,,,,,,,,,,,,,,,,,2,FF,,1,1.59143,,,,,,,,,,,,,,,,,,,,,,,,,,,,,,,,,,-104,60,1,0,0,response7disk,3,128,11,-5,1,0,0,rectangle,11,-5,1,0,0,1,3,"[271,311,75,59,144,313,152,124,88,125,135,178,278,94,96,267,23,256,159,141]",11,-5,1,0,0,0,127,127,104,1,,,,,,,,,,,,,,,,,,,,,,,
,,,,,,,,,,,,,,,,,,,,,,,,,,,,,,,,,,,,,,,,,,,5f8846eef3c64e2b5bc33259,5fe192a66a3657c24e3ae120,2020-12-22_07h31.52.660,FlowerSimilarity_Experiment,2020.1.2,Win32,60,5fe17d4a51f3a9c1a60f9869,,,,,,,,,,,,,,,,,,,7,FF,,5,2.018905,,,,,,,,,,,,,,,,,,,,,,,,,,,,,,,,,,100,-99,1,0,0,response3disk,8,129,2,-12,1,0,0,rectangle,2,-12,1,0,0,1,5,"[271,311,75,59,144,313,152,124,88,125,135,178,278,94,96,267,23,256,159,141]",2,-12,1,0,0,0,128,128,97,1,,,,,,,,,,,,,,,,,,,,,,,
,,,,,,,,,,,,,,,,,,,,,,,,,,,,,,,,,,,,,,,,,,,5f8846eef3c64e2b5bc33259,5fe192a66a3657c24e3ae120,2020-12-22_07h31.52.660,FlowerSimilarity_Experiment,2020.1.2,Win32,60,5fe17d4a51f3a9c1a60f9869,,,,,,,,,,,,,,,,,,,4,PF,,2,1.287515,,,,,,,,,,,,,,,,,,,,,,,,,,,,,,,,,,-140,-70,1,0,0,response5disk,3,130,-42,3,1,0,0,rectangle,-42,3,1,0,0,1,6,"[271,311,75,59,144,313,152,124,88,125,135,178,278,94,96,267,23,256,159,141]",-42,3,1,0,0,0,129,129,89,1,,,,,,,,,,,,,,,,,,,,,,,
,,,,,,,,,,,,,,,,,,,,,,,,,,,,,,,,,,,,,,,,,,,5f8846eef3c64e2b5bc33259,5fe192a66a3657c24e3ae120,2020-12-22_07h31.52.660,FlowerSimilarity_Experiment,2020.1.2,Win32,60,5fe17d4a51f3a9c1a60f9869,,,,,,,,,,,,,,,,,,,1,PF,,7,1.174975,,,,,,,,,,,,,,,,,,,,,,,,,,,,,,,,,,51,98,1,0,0,response1disk,5,131,28,-11,1,0,0,rectangle,28,-11,1,0,0,1,4,"[271,311,75,59,144,313,152,124,88,125,135,178,278,94,96,267,23,256,159,141]",28,-11,1,0,0,0,130,130,28,1,,,,,,,,,,,,,,,,,,,,,,,
,,,,,,,,,,,,,,,,,,,,,,,,,,,,,,,,,,,,,,,,,,,5f8846eef3c64e2b5bc33259,5fe192a66a3657c24e3ae120,2020-12-22_07h31.52.660,FlowerSimilarity_Experiment,2020.1.2,Win32,60,5fe17d4a51f3a9c1a60f9869,,,,,,,,,,,,,,,,,,,6,FF,,1,1.1406,,,,,,,,,,,,,,,,,,,,,,,,,,,,,,,,,,-90,63,1,0,0,response7disk,9,132,-22,8,1,0,0,rectangle,-22,8,1,0,0,1,2,"[271,311,75,59,144,313,152,124,88,125,135,178,278,94,96,267,23,256,159,141]",-22,8,1,0,0,0,131,131,160,1,,,,,,,,,,,,,,,,,,,,,,,
,,,,,,,,,,,,,,,,,,,,,,,,,,,,,,,,,,,,,,,,,,,5f8846eef3c64e2b5bc33259,5fe192a66a3657c24e3ae120,2020-12-22_07h31.52.660,FlowerSimilarity_Experiment,2020.1.2,Win32,60,5fe17d4a51f3a9c1a60f9869,,,,,,,,,,,,,,,,,,,2,PF,,1,1.275195,,,,,,,,,,,,,,,,,,,,,,,,,,,,,,,,,,-111,65,1,0,0,response7disk,4,133,12,9,1,0,0,rectangle,12,9,1,0,0,1,0,"[271,311,75,59,144,313,152,124,88,125,135,178,278,94,96,267,23,256,159,141]",12,9,1,0,0,0,132,132,127,1,,,,,,,,,,,,,,,,,,,,,,,
,,,,,,,,,,,,,,,,,,,,,,,,,,,,,,,,,,,,,,,,,,,5f8846eef3c64e2b5bc33259,5fe192a66a3657c24e3ae120,2020-12-22_07h31.52.660,FlowerSimilarity_Experiment,2020.1.2,Win32,60,5fe17d4a51f3a9c1a60f9869,,,,,,,,,,,,,,,,,,,9,PF,,5,1.618045,,,,,,,,,,,,,,,,,,,,,,,,,,,,,,,,,,133,-59,1,0,0,response3disk,2,134,32,-1,1,0,0,rectangle,32,-1,1,0,0,1,5,"[271,311,75,59,144,313,152,124,88,125,135,178,278,94,96,267,23,256,159,141]",32,-1,1,0,0,0,133,133,157,1,,,,,,,,,,,,,,,,,,,,,,,
,,,,,,,,,,,,,,,,,,,,,,,,,,,,,,,,,,,,,,,,,,,5f8846eef3c64e2b5bc33259,5fe192a66a3657c24e3ae120,2020-12-22_07h31.52.660,FlowerSimilarity_Experiment,2020.1.2,Win32,60,5fe17d4a51f3a9c1a60f9869,,,,,,,,,,,,,,,,,,,1,PF,,0,1.4989,,,,,,,,,,,,,,,,,,,,,,,,,,,,,,,,,,-78,97,1,0,0,response7disk,1,135,-42,1,1,0,0,rectangle,122,-64,1,0,0,5,5,"[271,311,75,59,144,313,152,124,88,125,135,178,278,94,96,267,23,256,159,141]",0,0,1,0,0,0,134,134,76,1,response3disk_3,rectangle,,,,,,,,,,,,,,,,,,,,,
,,,,,,,,,,,,,,,,,,,,,,,,,,,,,,,,,,,,,,,,,,,5f8846eef3c64e2b5bc33259,5fe192a66a3657c24e3ae120,2020-12-22_07h31.52.660,FlowerSimilarity_Experiment,2020.1.2,Win32,60,5fe17d4a51f3a9c1a60f9869,,,,,,,,,,,,,,,,,,,9,PF,,4,2.25737,,,,,,,,,,,,,,,,,,,,,,,,,,,,,,,,,,59,-113,1,0,0,response3disk,4,136,-19,8,1,0,0,rectangle,-19,8,1,0,0,5,0,"[271,311,75,59,144,313,152,124,88,125,135,178,278,94,96,267,23,256,159,141]",-19,8,1,0,0,0,135,135,114,1,,,,,,,,,,,,,,,,,,,,,,,
,,,,,,,,,,,,,,,,,,,,,,,,,,,,,,,,,,,,,,,,,,,5f8846eef3c64e2b5bc33259,5fe192a66a3657c24e3ae120,2020-12-22_07h31.52.660,FlowerSimilarity_Experiment,2020.1.2,Win32,60,5fe17d4a51f3a9c1a60f9869,,,,,,,,,,,,,,,,,,,2,PF,,2,1.440895,,,,,,,,,,,,,,,,,,,,,,,,,,,,,,,,,,-111,-86,1,0,0,response5disk,3,137,14,-20,1,0,0,rectangle,14,-20,1,0,0,5,5,"[271,311,75,59,144,313,152,124,88,125,135,178,278,94,96,267,23,256,159,141]",14,-20,1,0,0,0,136,136,69,1,,,,,,,,,,,,,,,,,,,,,,,
,,,,,,,,,,,,,,,,,,,,,,,,,,,,,,,,,,,,,,,,,,,5f8846eef3c64e2b5bc33259,5fe192a66a3657c24e3ae120,2020-12-22_07h31.52.660,FlowerSimilarity_Experiment,2020.1.2,Win32,60,5fe17d4a51f3a9c1a60f9869,,,,,,,,,,,,,,,,,,,7,FF,,1,1.14434,,,,,,,,,,,,,,,,,,,,,,,,,,,,,,,,,,-98,92,1,0,0,response7disk,7,138,-12,11,1,0,0,rectangle,-12,11,1,0,0,5,4,"[271,311,75,59,144,313,152,124,88,125,135,178,278,94,96,267,23,256,159,141]",-12,11,1,0,0,0,137,137,34,1,,,,,,,,,,,,,,,,,,,,,,,
,,,,,,,,,,,,,,,,,,,,,,,,,,,,,,,,,,,,,,,,,,,5f8846eef3c64e2b5bc33259,5fe192a66a3657c24e3ae120,2020-12-22_07h31.52.660,FlowerSimilarity_Experiment,2020.1.2,Win32,60,5fe17d4a51f3a9c1a60f9869,,,,,,,,,,,,,,,,,,,3,PF,,3,1.62046,,,,,,,,,,,,,,,,,,,,,,,,,,,,,,,,,,-55,-126,1,0,0,response5disk,8,139,-22,12,1,0,0,rectangle,-22,12,1,0,0,5,3,"[271,311,75,59,144,313,152,124,88,125,135,178,278,94,96,267,23,256,159,141]",-22,12,1,0,0,0,138,138,3,1,,,,,,,,,,,,,,,,,,,,,,,
,,,,,,,,,,,,,,,,,,,,,,,,,,,,,,,,,,,,,,,,,,,5f8846eef3c64e2b5bc33259,5fe192a66a3657c24e3ae120,2020-12-22_07h31.52.660,FlowerSimilarity_Experiment,2020.1.2,Win32,60,5fe17d4a51f3a9c1a60f9869,,,,,,,,,,,,,,,,,,,3,PF,,6,1.3675,,,,,,,,,,,,,,,,,,,,,,,,,,,,,,,,,,114,70,1,0,0,response1disk,6,140,-18,0,1,0,0,rectangle,-18,0,1,0,0,5,3,"[271,311,75,59,144,313,152,124,88,125,135,178,278,94,96,267,23,256,159,141]",-18,0,1,0,0,0,139,139,47,1,,,,,,,,,,,,,,,,,,,,,,,
,,,,,,,,,,,,,,,,,,,,,,,,,,,,,,,,,,,,,,,,,,,5f8846eef3c64e2b5bc33259,5fe192a66a3657c24e3ae120,2020-12-22_07h31.52.660,FlowerSimilarity_Experiment,2020.1.2,Win32,60,5fe17d4a51f3a9c1a60f9869,,,,,,,,,,,,,,,,,,,6,PF,,6,1.24256,,,,,,,,,,,,,,,,,,,,,,,,,,,,,,,,,,115,52,1,0,0,response1disk,4,141,-18,10,1,0,0,rectangle,118,77,1,0,0,6,6,"[271,311,75,59,144,313,152,124,88,125,135,178,278,94,96,267,23,256,159,141]",9,-18,1,0,0,0,140,140,33,1,response1disk_3,rectangle,,,,,,,,,,,,,,,,,,,,,
,,,,,,,,,,,,,,,,,,,,,,,,,,,,,,,,,,,,,,,,,,,5f8846eef3c64e2b5bc33259,5fe192a66a3657c24e3ae120,2020-12-22_07h31.52.660,FlowerSimilarity_Experiment,2020.1.2,Win32,60,5fe17d4a51f3a9c1a60f9869,,,,,,,,,,,,,,,,,,,1,FF,,0,1.121445,,,,,,,,,,,,,,,,,,,,,,,,,,,,,,,,,,-69,87,1,0,0,response7disk,1,142,-13,7,1,0,0,rectangle,-13,7,1,0,0,6,4,"[271,311,75,59,144,313,152,124,88,125,135,178,278,94,96,267,23,256,159,141]",-13,7,1,0,0,0,141,141,151,1,,,,,,,,,,,,,,,,,,,,,,,
,,,,,,,,,,,,,,,,,,,,,,,,,,,,,,,,,,,,,,,,,,,5f8846eef3c64e2b5bc33259,5fe192a66a3657c24e3ae120,2020-12-22_07h31.52.660,FlowerSimilarity_Experiment,2020.1.2,Win32,60,5fe17d4a51f3a9c1a60f9869,,,,,,,,,,,,,,,,,,,7,PF,,0,1.049745,,,,,,,,,,,,,,,,,,,,,,,,,,,,,,,,,,-78,88,1,0,0,response7disk,3,143,-43,18,1,0,0,rectangle,-43,18,1,0,0,6,5,"[271,311,75,59,144,313,152,124,88,125,135,178,278,94,96,267,23,256,159,141]",-43,18,1,0,0,0,142,142,81,1,,,,,,,,,,,,,,,,,,,,,,,
,,,,,,,,,,,,,,,,,,,,,,,,,,,,,,,,,,,,,,,,,,,5f8846eef3c64e2b5bc33259,5fe192a66a3657c24e3ae120,2020-12-22_07h31.52.660,FlowerSimilarity_Experiment,2020.1.2,Win32,60,5fe17d4a51f3a9c1a60f9869,,,,,,,,,,,,,,,,,,,9,PF,,6,1.0422,,,,,,,,,,,,,,,,,,,,,,,,,,,,,,,,,,124,29,1,0,0,response1disk,5,144,22,-5,1,0,0,rectangle,-118,80,1,0,0,1,1,"[271,311,75,59,144,313,152,124,88,125,135,178,278,94,96,267,23,256,159,141]",3,-7,1,0,0,0,143,143,134,1,response7disk_3,rectangle,,,,,,,,,,,,,,,,,,,,,
,,,,,,,,,,,,,,,,,,,,,,,,,,,,,,,,,,,,,,,,,,,5f8846eef3c64e2b5bc33259,5fe192a66a3657c24e3ae120,2020-12-22_07h31.52.660,FlowerSimilarity_Experiment,2020.1.2,Win32,60,5fe17d4a51f3a9c1a60f9869,,,,,,,,,,,,,,,,,,,4,FF,,7,1.262475,,,,,,,,,,,,,,,,,,,,,,,,,,,,,,,,,,79,139,1,0,0,response1disk,8,145,-19,7,1,0,0,rectangle,-19,7,1,0,0,1,6,"[271,311,75,59,144,313,152,124,88,125,135,178,278,94,96,267,23,256,159,141]",-19,7,1,0,0,0,144,144,35,1,,,,,,,,,,,,,,,,,,,,,,,
,,,,,,,,,,,,,,,,,,,,,,,,,,,,,,,,,,,,,,,,,,,5f8846eef3c64e2b5bc33259,5fe192a66a3657c24e3ae120,2020-12-22_07h31.52.660,FlowerSimilarity_Experiment,2020.1.2,Win32,60,5fe17d4a51f3a9c1a60f9869,,,,,,,,,,,,,,,,,,,5,FF,,7,0.951975,,,,,,,,,,,,,,,,,,,,,,,,,,,,,,,,,,73,92,1,0,0,response1disk,9,146,-9,-10,1,0,0,rectangle,-9,-10,1,0,0,1,1,"[271,311,75,59,144,313,152,124,88,125,135,178,278,94,96,267,23,256,159,141]",-9,-10,1,0,0,0,145,145,61,1,,,,,,,,,,,,,,,,,,,,,,,
,,,,,,,,,,,,,,,,,,,,,,,,,,,,,,,,,,,,,,,,,,,5f8846eef3c64e2b5bc33259,5fe192a66a3657c24e3ae120,2020-12-22_07h31.52.660,FlowerSimilarity_Experiment,2020.1.2,Win32,60,5fe17d4a51f3a9c1a60f9869,,,,,,,,,,,,,,,,,,,8,FF,,7,0.877635,,,,,,,,,,,,,,,,,,,,,,,,,,,,,,,,,,50,111,1,0,0,response1disk,1,147,-27,0,1,0,0,rectangle,-27,0,1,0,0,1,0,"[271,311,75,59,144,313,152,124,88,125,135,178,278,94,96,267,23,256,159,141]",-27,0,1,0,0,0,146,146,20,1,,,,,,,,,,,,,,,,,,,,,,,
,,,,,,,,,,,,,,,,,,,,,,,,,,,,,,,,,,,,,,,,,,,5f8846eef3c64e2b5bc33259,5fe192a66a3657c24e3ae120,2020-12-22_07h31.52.660,FlowerSimilarity_Experiment,2020.1.2,Win32,60,5fe17d4a51f3a9c1a60f9869,,,,,,,,,,,,,,,,,,,8,PF,,7,1.23072,,,,,,,,,,,,,,,,,,,,,,,,,,,,,,,,,,73,126,1,0,0,response1disk,1,148,16,16,1,0,0,rectangle,16,16,1,0,0,1,0,"[271,311,75,59,144,313,152,124,88,125,135,178,278,94,96,267,23,256,159,141]",16,16,1,0,0,0,147,147,57,1,,,,,,,,,,,,,,,,,,,,,,,
,,,,,,,,,,,,,,,,,,,,,,,,,,,,,,,,,,,,,,,,,,,5f8846eef3c64e2b5bc33259,5fe192a66a3657c24e3ae120,2020-12-22_07h31.52.660,FlowerSimilarity_Experiment,2020.1.2,Win32,60,5fe17d4a51f3a9c1a60f9869,,,,,,,,,,,,,,,,,,,7,PF,,2,1.247525,,,,,,,,,,,,,,,,,,,,,,,,,,,,,,,,,,-155,-65,1,0,0,response5disk,4,149,-16,7,1,0,0,rectangle,-16,7,1,0,0,1,0,"[271,311,75,59,144,313,152,124,88,125,135,178,278,94,96,267,23,256,159,141]",-16,7,1,0,0,0,148,148,43,1,,,,,,,,,,,,,,,,,,,,,,,
,,,,,,,,,,,,,,,,,,,,,,,,,,,,,,,,,,,,,,,,,,,5f8846eef3c64e2b5bc33259,5fe192a66a3657c24e3ae120,2020-12-22_07h31.52.660,FlowerSimilarity_Experiment,2020.1.2,Win32,60,5fe17d4a51f3a9c1a60f9869,,,,,,,,,,,,,,,,,,,7,FF,,6,4.195975,,,,,,,,,,,,,,,,,,,,,,,,,,,,,,,,,,124,74,1,0,0,response1disk,6,150,25,-18,1,0,0,rectangle,25,-18,1,0,0,1,4,"[271,311,75,59,144,313,152,124,88,125,135,178,278,94,96,267,23,256,159,141]",25,-18,1,0,0,0,149,149,31,1,,,,,,,,,,,,,,,,,,,,,,,
,,,,,,,,,,,,,,,,,,,,,,,,,,,,,,,,,,,,,,,,,,,5f8846eef3c64e2b5bc33259,5fe192a66a3657c24e3ae120,2020-12-22_07h31.52.660,FlowerSimilarity_Experiment,2020.1.2,Win32,60,5fe17d4a51f3a9c1a60f9869,,,,,,,,,,,,,,,,,,,9,FF,,6,1.61101,,,,,,,,,,,,,,,,,,,,,,,,,,,,,,,,,,129,81,1,0,0,response1disk,7,151,14,12,1,0,0,rectangle,14,12,1,0,0,1,5,"[271,311,75,59,144,313,152,124,88,125,135,178,278,94,96,267,23,256,159,141]",14,12,1,0,0,0,150,150,100,1,,,,,,,,,,,,,,,,,,,,,,,
,,,,,,,,,,,,,,,,,,,,,,,,,,,,,,,,,,,,,,,,,,,5f8846eef3c64e2b5bc33259,5fe192a66a3657c24e3ae120,2020-12-22_07h31.52.660,FlowerSimilarity_Experiment,2020.1.2,Win32,60,5fe17d4a51f3a9c1a60f9869,,,,,,,,,,,,,,,,,,,4,FF,,4,2.08765,,,,,,,,,,,,,,,,,,,,,,,,,,,,,,,,,,67,-130,1,0,0,response3disk,1,152,-16,-14,1,0,0,rectangle,41,-95,1,0,0,4,4,"[271,311,75,59,144,313,152,124,88,125,135,178,278,94,96,267,23,256,159,141]",16,5,1,0,0,0,151,151,102,1,response3disk_3,rectangle,,,,,,,,,,,,,,,,,,,,,
,,,,,,,,,,,,,,,,,,,,,,,,,,,,,,,,,,,,,,,,,,,5f8846eef3c64e2b5bc33259,5fe192a66a3657c24e3ae120,2020-12-22_07h31.52.660,FlowerSimilarity_Experiment,2020.1.2,Win32,60,5fe17d4a51f3a9c1a60f9869,,,,,,,,,,,,,,,,,,,7,PF,,6,1.205705,,,,,,,,,,,,,,,,,,,,,,,,,,,,,,,,,,132,75,1,0,0,response1disk,1,153,26,0,1,0,0,rectangle,26,0,1,0,0,4,0,"[271,311,75,59,144,313,152,124,88,125,135,178,278,94,96,267,23,256,159,141]",26,0,1,0,0,0,152,152,53,1,,,,,,,,,,,,,,,,,,,,,,,
,,,,,,,,,,,,,,,,,,,,,,,,,,,,,,,,,,,,,,,,,,,5f8846eef3c64e2b5bc33259,5fe192a66a3657c24e3ae120,2020-12-22_07h31.52.660,FlowerSimilarity_Experiment,2020.1.2,Win32,60,5fe17d4a51f3a9c1a60f9869,,,,,,,,,,,,,,,,,,,5,PF,,0,1.39403,,,,,,,,,,,,,,,,,,,,,,,,,,,,,,,,,,-69,153,1,0,0,response7disk,5,154,23,-2,1,0,0,rectangle,23,-2,1,0,0,4,5,"[271,311,75,59,144,313,152,124,88,125,135,178,278,94,96,267,23,256,159,141]",23,-2,1,0,0,0,153,153,94,1,,,,,,,,,,,,,,,,,,,,,,,
,,,,,,,,,,,,,,,,,,,,,,,,,,,,,,,,,,,,,,,,,,,5f8846eef3c64e2b5bc33259,5fe192a66a3657c24e3ae120,2020-12-22_07h31.52.660,FlowerSimilarity_Experiment,2020.1.2,Win32,60,5fe17d4a51f3a9c1a60f9869,,,,,,,,,,,,,,,,,,,6,PF,,1,1.394755,,,,,,,,,,,,,,,,,,,,,,,,,,,,,,,,,,-83,58,1,0,0,response7disk,6,155,-44,-13,1,0,0,rectangle,-44,-13,1,0,0,4,5,"[271,311,75,59,144,313,152,124,88,125,135,178,278,94,96,267,23,256,159,141]",-44,-13,1,0,0,0,154,154,0,1,,,,,,,,,,,,,,,,,,,,,,,
,,,,,,,,,,,,,,,,,,,,,,,,,,,,,,,,,,,,,,,,,,,5f8846eef3c64e2b5bc33259,5fe192a66a3657c24e3ae120,2020-12-22_07h31.52.660,FlowerSimilarity_Experiment,2020.1.2,Win32,60,5fe17d4a51f3a9c1a60f9869,,,,,,,,,,,,,,,,,,,3,PF,,0,1.08937,,,,,,,,,,,,,,,,,,,,,,,,,,,,,,,,,,-75,102,1,0,0,response7disk,3,156,-43,-7,1,0,0,rectangle,-43,-7,1,0,0,4,3,"[271,311,75,59,144,313,152,124,88,125,135,178,278,94,96,267,23,256,159,141]",-43,-7,1,0,0,0,155,155,4,1,,,,,,,,,,,,,,,,,,,,,,,
,,,,,,,,,,,,,,,,,,,,,,,,,,,,,,,,,,,,,,,,,,,5f8846eef3c64e2b5bc33259,5fe192a66a3657c24e3ae120,2020-12-22_07h31.52.660,FlowerSimilarity_Experiment,2020.1.2,Win32,60,5fe17d4a51f3a9c1a60f9869,,,,,,,,,,,,,,,,,,,2,FF,,4,5.86557,,,,,,,,,,,,,,,,,,,,,,,,,,,,,,,,,,107,-135,1,0,0,response3disk,5,157,-3,-13,1,0,0,rectangle,-3,-13,1,0,0,4,0,"[271,311,75,59,144,313,152,124,88,125,135,178,278,94,96,267,23,256,159,141]",-3,-13,1,0,0,0,156,156,80,1,,,,,,,,,,,,,,,,,,,,,,,
,,,,,,,,,,,,,,,,,,,,,,,,,,,,,,,,,,,,,,,,,,,5f8846eef3c64e2b5bc33259,5fe192a66a3657c24e3ae120,2020-12-22_07h31.52.660,FlowerSimilarity_Experiment,2020.1.2,Win32,60,5fe17d4a51f3a9c1a60f9869,,,,,,,,,,,,,,,,,,,3,PF,,6,1.24877,,,,,,,,,,,,,,,,,,,,,,,,,,,,,,,,,,122,107,1,0,0,response1disk,9,158,43,16,1,0,0,rectangle,43,16,1,0,0,4,1,"[271,311,75,59,144,313,152,124,88,125,135,178,278,94,96,267,23,256,159,141]",43,16,1,0,0,0,157,157,79,1,,,,,,,,,,,,,,,,,,,,,,,
,,,,,,,,,,,,,,,,,,,,,,,,,,,,,,,,,,,,,,,,,,,5f8846eef3c64e2b5bc33259,5fe192a66a3657c24e3ae120,2020-12-22_07h31.52.660,FlowerSimilarity_Experiment,2020.1.2,Win32,60,5fe17d4a51f3a9c1a60f9869,,,,,,,,,,,,,,,,,,,8,FF,,0,1.32764,,,,,,,,,,,,,,,,,,,,,,,,,,,,,,,,,,-54,108,1,0,0,response7disk,5,159,-5,2,1,0,0,rectangle,-126,-78,1,0,0,4,2,"[271,311,75,59,144,313,152,124,88,125,135,178,278,94,96,267,23,256,159,141]",3,-7,1,0,0,0,158,158,152,1,response5disk_3,rectangle,,,,,,,,,,,,,,,,,,,,,
,,,,,,,,,,,,,,,,,,,,,,,,,,,,,,,,,,,,,,,,,,,5f8846eef3c64e2b5bc33259,5fe192a66a3657c24e3ae120,2020-12-22_07h31.52.660,FlowerSimilarity_Experiment,2020.1.2,Win32,60,5fe17d4a51f3a9c1a60f9869,,,,,,,,,,,,,,,,,,,8,FF,,7,0.92888,,,,,,,,,,,,,,,,,,,,,,,,,,,,,,,,,,52,119,1,0,0,response1disk,9,160,-6,13,1,0,0,rectangle,-6,13,1,0,0,4,1,"[271,311,75,59,144,313,152,124,88,125,135,178,278,94,96,267,23,256,159,141]",-6,13,1,0,0,0,159,159,105,1,,,,,,,,,,,,,,,,,,,,,,,
,,,,,,,,,,,,,,,,,,,,,,,,,,,,,,,,,,,,,,,,,,,5f8846eef3c64e2b5bc33259,5fe192a66a3657c24e3ae120,2020-12-22_07h31.52.660,FlowerSimilarity_Experiment,2020.1.2,Win32,60,5fe17d4a51f3a9c1a60f9869,,,,,,,,,,,,,,,,,,,8,PF,,6,1.661325,,,,,,,,,,,,,,,,,,,,,,,,,,,,,,,,,,95,38,1,0,0,response1disk,6,161,-5,-8,1,0,0,rectangle,-5,-8,1,0,0,4,0,"[271,311,75,59,144,313,152,124,88,125,135,178,278,94,96,267,23,256,159,141]",-5,-8,1,0,0,0,160,160,161,1,,,,,,,,,,,,,,,,,,,,,,,
,,,,,,,,,,,,,,,,,,,,,,,,,,,,,,,,,,,,,,,,,,,5f8846eef3c64e2b5bc33259,5fe192a66a3657c24e3ae120,2020-12-22_07h31.52.660,FlowerSimilarity_Experiment,2020.1.2,Win32,60,5fe17d4a51f3a9c1a60f9869,,,,,,,,,,,,,,,,,,,9,FF,,7,1.229255,,,,,,,,,,,,,,,,,,,,,,,,,,,,,,,,,,52,95,1,0,0,response1disk,8,162,-7,11,1,0,0,rectangle,-7,11,1,0,0,4,5,"[271,311,75,59,144,313,152,124,88,125,135,178,278,94,96,267,23,256,159,141]",-7,11,1,0,0,0,161,161,6,1,,,,,,,,,,,,,,,,,,,,,,,
,,,,,,,,,,,,,,,,,,,,,,,,,,,,,,,,,,,,,,,,,,,5f8846eef3c64e2b5bc33259,5fe192a66a3657c24e3ae120,2020-12-22_07h31.52.660,FlowerSimilarity_Experiment,2020.1.2,Win32,60,5fe17d4a51f3a9c1a60f9869,,,,,,,,,,,,,,,,,,,,,,,,,,,,,,,,,,,,,,,,,,,,,,,,,,,,,,,,,,,,,,,,,,,,,,,,,,,,,,,,,,,,,,,,,,,0,0,0,0,1,,,,,,,,,,,,,,,,
,,,,,,,,,,,,,,,,,,,,,,,,,,,,,,,,,,,,,,,,,,,5f8846eef3c64e2b5bc33259,5fe192a66a3657c24e3ae120,2020-12-22_07h31.52.660,FlowerSimilarity_Experiment,2020.1.2,Win32,60,5fe17d4a51f3a9c1a60f9869,,,,,,,,,,,,,,,,,,,3,PF,,4,2.134865,,,,,,,,,,,,,,,,,,,,,,,,,,,,,,,,,,48,-111,1,0,0,response3disk,2,163,-9,-5,1,0,0,rectangle,-9,-5,1,0,0,4,3,"[271,311,75,59,144,313,152,124,88,125,135,178,278,94,96,267,23,256,159,141]",-9,-5,1,0,0,0,0,0,36,1,,,,,,,,,,,,,,,,,,,,,,,
,,,,,,,,,,,,,,,,,,,,,,,,,,,,,,,,,,,,,,,,,,,5f8846eef3c64e2b5bc33259,5fe192a66a3657c24e3ae120,2020-12-22_07h31.52.660,FlowerSimilarity_Experiment,2020.1.2,Win32,60,5fe17d4a51f3a9c1a60f9869,,,,,,,,,,,,,,,,,,,7,FF,,7,1.327315,,,,,,,,,,,,,,,,,,,,,,,,,,,,,,,,,,81,105,1,0,0,response1disk,1,164,8,8,1,0,0,rectangle,8,8,1,0,0,4,4,"[271,311,75,59,144,313,152,124,88,125,135,178,278,94,96,267,23,256,159,141]",8,8,1,0,0,0,1,1,132,1,,,,,,,,,,,,,,,,,,,,,,,
,,,,,,,,,,,,,,,,,,,,,,,,,,,,,,,,,,,,,,,,,,,5f8846eef3c64e2b5bc33259,5fe192a66a3657c24e3ae120,2020-12-22_07h31.52.660,FlowerSimilarity_Experiment,2020.1.2,Win32,60,5fe17d4a51f3a9c1a60f9869,,,,,,,,,,,,,,,,,,,9,FF,,0,1.201415,,,,,,,,,,,,,,,,,,,,,,,,,,,,,,,,,,-79,84,1,0,0,response7disk,9,165,-19,9,1,0,0,rectangle,-19,9,1,0,0,4,4,"[271,311,75,59,144,313,152,124,88,125,135,178,278,94,96,267,23,256,159,141]",-19,9,1,0,0,0,2,2,17,1,,,,,,,,,,,,,,,,,,,,,,,
,,,,,,,,,,,,,,,,,,,,,,,,,,,,,,,,,,,,,,,,,,,5f8846eef3c64e2b5bc33259,5fe192a66a3657c24e3ae120,2020-12-22_07h31.52.660,FlowerSimilarity_Experiment,2020.1.2,Win32,60,5fe17d4a51f3a9c1a60f9869,,,,,,,,,,,,,,,,,,,8,PF,,4,3.051675,,,,,,,,,,,,,,,,,,,,,,,,,,,,,,,,,,75,-123,1,0,0,response3disk,2,166,-3,-10,1,0,0,rectangle,-3,-10,1,0,0,4,7,"[271,311,75,59,144,313,152,124,88,125,135,178,278,94,96,267,23,256,159,141]",-3,-10,1,0,0,0,3,3,83,1,,,,,,,,,,,,,,,,,,,,,,,
,,,,,,,,,,,,,,,,,,,,,,,,,,,,,,,,,,,,,,,,,,,5f8846eef3c64e2b5bc33259,5fe192a66a3657c24e3ae120,2020-12-22_07h31.52.660,FlowerSimilarity_Experiment,2020.1.2,Win32,60,5fe17d4a51f3a9c1a60f9869,,,,,,,,,,,,,,,,,,,9,PF,,6,4.23572,,,,,,,,,,,,,,,,,,,,,,,,,,,,,,,,,,85,63,1,0,0,response1disk,7,167,29,0,1,0,0,rectangle,29,0,1,0,0,4,4,"[271,311,75,59,144,313,152,124,88,125,135,178,278,94,96,267,23,256,159,141]",29,0,1,0,0,0,4,4,121,1,,,,,,,,,,,,,,,,,,,,,,,
,,,,,,,,,,,,,,,,,,,,,,,,,,,,,,,,,,,,,,,,,,,5f8846eef3c64e2b5bc33259,5fe192a66a3657c24e3ae120,2020-12-22_07h31.52.660,FlowerSimilarity_Experiment,2020.1.2,Win32,60,5fe17d4a51f3a9c1a60f9869,,,,,,,,,,,,,,,,,,,6,PF,,6,1.13996,,,,,,,,,,,,,,,,,,,,,,,,,,,,,,,,,,124,84,1,0,0,response1disk,3,168,5,-3,1,0,0,rectangle,5,-3,1,0,0,4,0,"[271,311,75,59,144,313,152,124,88,125,135,178,278,94,96,267,23,256,159,141]",5,-3,1,0,0,0,5,5,26,1,,,,,,,,,,,,,,,,,,,,,,,
,,,,,,,,,,,,,,,,,,,,,,,,,,,,,,,,,,,,,,,,,,,5f8846eef3c64e2b5bc33259,5fe192a66a3657c24e3ae120,2020-12-22_07h31.52.660,FlowerSimilarity_Experiment,2020.1.2,Win32,60,5fe17d4a51f3a9c1a60f9869,,,,,,,,,,,,,,,,,,,7,PF,,1,1.541025,,,,,,,,,,,,,,,,,,,,,,,,,,,,,,,,,,-100,77,1,0,0,response7disk,7,169,-20,4,1,0,0,rectangle,-20,4,1,0,0,4,4,"[271,311,75,59,144,313,152,124,88,125,135,178,278,94,96,267,23,256,159,141]",-20,4,1,0,0,0,6,6,51,1,,,,,,,,,,,,,,,,,,,,,,,
,,,,,,,,,,,,,,,,,,,,,,,,,,,,,,,,,,,,,,,,,,,5f8846eef3c64e2b5bc33259,5fe192a66a3657c24e3ae120,2020-12-22_07h31.52.660,FlowerSimilarity_Experiment,2020.1.2,Win32,60,5fe17d4a51f3a9c1a60f9869,,,,,,,,,,,,,,,,,,,1,PF,,0,0.822585,,,,,,,,,,,,,,,,,,,,,,,,,,,,,,,,,,-82,102,1,0,0,response7disk,9,170,-14,0,1,0,0,rectangle,-14,0,1,0,0,4,2,"[271,311,75,59,144,313,152,124,88,125,135,178,278,94,96,267,23,256,159,141]",-14,0,1,0,0,0,7,7,15,1,,,,,,,,,,,,,,,,,,,,,,,
,,,,,,,,,,,,,,,,,,,,,,,,,,,,,,,,,,,,,,,,,,,5f8846eef3c64e2b5bc33259,5fe192a66a3657c24e3ae120,2020-12-22_07h31.52.660,FlowerSimilarity_Experiment,2020.1.2,Win32,60,5fe17d4a51f3a9c1a60f9869,,,,,,,,,,,,,,,,,,,2,FF,,4,1.55695,,,,,,,,,,,,,,,,,,,,,,,,,,,,,,,,,,73,-126,1,0,0,response3disk,1,171,11,-14,1,0,0,rectangle,11,-14,1,0,0,4,6,"[271,311,75,59,144,313,152,124,88,125,135,178,278,94,96,267,23,256,159,141]",11,-14,1,0,0,0,8,8,85,1,,,,,,,,,,,,,,,,,,,,,,,
,,,,,,,,,,,,,,,,,,,,,,,,,,,,,,,,,,,,,,,,,,,5f8846eef3c64e2b5bc33259,5fe192a66a3657c24e3ae120,2020-12-22_07h31.52.660,FlowerSimilarity_Experiment,2020.1.2,Win32,60,5fe17d4a51f3a9c1a60f9869,,,,,,,,,,,,,,,,,,,3,FF,,1,1.35741,,,,,,,,,,,,,,,,,,,,,,,,,,,,,,,,,,-119,84,1,0,0,response7disk,3,172,20,-19,1,0,0,rectangle,20,-19,1,0,0,4,3,"[271,311,75,59,144,313,152,124,88,125,135,178,278,94,96,267,23,256,159,141]",20,-19,1,0,0,0,9,9,68,1,,,,,,,,,,,,,,,,,,,,,,,
,,,,,,,,,,,,,,,,,,,,,,,,,,,,,,,,,,,,,,,,,,,5f8846eef3c64e2b5bc33259,5fe192a66a3657c24e3ae120,2020-12-22_07h31.52.660,FlowerSimilarity_Experiment,2020.1.2,Win32,60,5fe17d4a51f3a9c1a60f9869,,,,,,,,,,,,,,,,,,,1,PF,,3,1.25255,,,,,,,,,,,,,,,,,,,,,,,,,,,,,,,,,,-83,-152,1,0,0,response5disk,6,173,-17,-1,1,0,0,rectangle,-17,-1,1,0,0,4,3,"[271,311,75,59,144,313,152,124,88,125,135,178,278,94,96,267,23,256,159,141]",-17,-1,1,0,0,0,10,10,144,1,,,,,,,,,,,,,,,,,,,,,,,
,,,,,,,,,,,,,,,,,,,,,,,,,,,,,,,,,,,,,,,,,,,5f8846eef3c64e2b5bc33259,5fe192a66a3657c24e3ae120,2020-12-22_07h31.52.660,FlowerSimilarity_Experiment,2020.1.2,Win32,60,5fe17d4a51f3a9c1a60f9869,,,,,,,,,,,,,,,,,,,1,PF,,4,1.9116,,,,,,,,,,,,,,,,,,,,,,,,,,,,,,,,,,24,-91,1,0,0,response3disk,4,174,-3,-10,1,0,0,rectangle,-3,-10,1,0,0,4,7,"[271,311,75,59,144,313,152,124,88,125,135,178,278,94,96,267,23,256,159,141]",-3,-10,1,0,0,0,11,11,139,1,,,,,,,,,,,,,,,,,,,,,,,
,,,,,,,,,,,,,,,,,,,,,,,,,,,,,,,,,,,,,,,,,,,5f8846eef3c64e2b5bc33259,5fe192a66a3657c24e3ae120,2020-12-22_07h31.52.660,FlowerSimilarity_Experiment,2020.1.2,Win32,60,5fe17d4a51f3a9c1a60f9869,,,,,,,,,,,,,,,,,,,5,FF,,6,2.13027,,,,,,,,,,,,,,,,,,,,,,,,,,,,,,,,,,106,69,1,0,0,response1disk,6,175,19,7,1,0,0,rectangle,19,7,1,0,0,4,5,"[271,311,75,59,144,313,152,124,88,125,135,178,278,94,96,267,23,256,159,141]",19,7,1,0,0,0,12,12,12,1,,,,,,,,,,,,,,,,,,,,,,,
,,,,,,,,,,,,,,,,,,,,,,,,,,,,,,,,,,,,,,,,,,,5f8846eef3c64e2b5bc33259,5fe192a66a3657c24e3ae120,2020-12-22_07h31.52.660,FlowerSimilarity_Experiment,2020.1.2,Win32,60,5fe17d4a51f3a9c1a60f9869,,,,,,,,,,,,,,,,,,,8,PF,,0,1.23881,,,,,,,,,,,,,,,,,,,,,,,,,,,,,,,,,,-106,106,1,0,0,response7disk,8,176,-5,2,1,0,0,rectangle,-5,2,1,0,0,4,5,"[271,311,75,59,144,313,152,124,88,125,135,178,278,94,96,267,23,256,159,141]",-5,2,1,0,0,0,13,13,153,1,,,,,,,,,,,,,,,,,,,,,,,
,,,,,,,,,,,,,,,,,,,,,,,,,,,,,,,,,,,,,,,,,,,5f8846eef3c64e2b5bc33259,5fe192a66a3657c24e3ae120,2020-12-22_07h31.52.660,FlowerSimilarity_Experiment,2020.1.2,Win32,60,5fe17d4a51f3a9c1a60f9869,,,,,,,,,,,,,,,,,,,2,FF,,4,1.784805,,,,,,,,,,,,,,,,,,,,,,,,,,,,,,,,,,37,-140,1,0,0,response3disk,4,177,-1,1,1,0,0,rectangle,-1,1,1,0,0,4,0,"[271,311,75,59,144,313,152,124,88,125,135,178,278,94,96,267,23,256,159,141]",-1,1,1,0,0,0,14,14,145,1,,,,,,,,,,,,,,,,,,,,,,,
,,,,,,,,,,,,,,,,,,,,,,,,,,,,,,,,,,,,,,,,,,,5f8846eef3c64e2b5bc33259,5fe192a66a3657c24e3ae120,2020-12-22_07h31.52.660,FlowerSimilarity_Experiment,2020.1.2,Win32,60,5fe17d4a51f3a9c1a60f9869,,,,,,,,,,,,,,,,,,,3,FF,,3,1.2936,,,,,,,,,,,,,,,,,,,,,,,,,,,,,,,,,,-63,-88,1,0,0,response5disk,2,178,-13,17,1,0,0,rectangle,147,-50,1,0,0,5,5,"[271,311,75,59,144,313,152,124,88,125,135,178,278,94,96,267,23,256,159,141]",-18,-2,1,0,0,0,15,15,93,1,response3disk_3,rectangle,,,,,,,,,,,,,,,,,,,,,
,,,,,,,,,,,,,,,,,,,,,,,,,,,,,,,,,,,,,,,,,,,5f8846eef3c64e2b5bc33259,5fe192a66a3657c24e3ae120,2020-12-22_07h31.52.660,FlowerSimilarity_Experiment,2020.1.2,Win32,60,5fe17d4a51f3a9c1a60f9869,,,,,,,,,,,,,,,,,,,6,FF,,6,1.1808,,,,,,,,,,,,,,,,,,,,,,,,,,,,,,,,,,102,45,1,0,0,response1disk,3,179,-2,-11,1,0,0,rectangle,-2,-11,1,0,0,5,4,"[271,311,75,59,144,313,152,124,88,125,135,178,278,94,96,267,23,256,159,141]",-2,-11,1,0,0,0,16,16,21,1,,,,,,,,,,,,,,,,,,,,,,,
,,,,,,,,,,,,,,,,,,,,,,,,,,,,,,,,,,,,,,,,,,,5f8846eef3c64e2b5bc33259,5fe192a66a3657c24e3ae120,2020-12-22_07h31.52.660,FlowerSimilarity_Experiment,2020.1.2,Win32,60,5fe17d4a51f3a9c1a60f9869,,,,,,,,,,,,,,,,,,,6,FF,,2,1.219555,,,,,,,,,,,,,,,,,,,,,,,,,,,,,,,,,,-83,-78,1,0,0,response5disk,1,180,-6,19,1,0,0,rectangle,-6,19,1,0,0,5,6,"[271,311,75,59,144,313,152,124,88,125,135,178,278,94,96,267,23,256,159,141]",-6,19,1,0,0,0,17,17,5,1,,,,,,,,,,,,,,,,,,,,,,,
,,,,,,,,,,,,,,,,,,,,,,,,,,,,,,,,,,,,,,,,,,,5f8846eef3c64e2b5bc33259,5fe192a66a3657c24e3ae120,2020-12-22_07h31.52.660,FlowerSimilarity_Experiment,2020.1.2,Win32,60,5fe17d4a51f3a9c1a60f9869,,,,,,,,,,,,,,,,,,,8,PF,,7,1.263085,,,,,,,,,,,,,,,,,,,,,,,,,,,,,,,,,,68,118,1,0,0,response1disk,4,181,27,2,1,0,0,rectangle,27,2,1,0,0,5,3,"[271,311,75,59,144,313,152,124,88,125,135,178,278,94,96,267,23,256,159,141]",27,2,1,0,0,0,18,18,78,1,,,,,,,,,,,,,,,,,,,,,,,
,,,,,,,,,,,,,,,,,,,,,,,,,,,,,,,,,,,,,,,,,,,5f8846eef3c64e2b5bc33259,5fe192a66a3657c24e3ae120,2020-12-22_07h31.52.660,FlowerSimilarity_Experiment,2020.1.2,Win32,60,5fe17d4a51f3a9c1a60f9869,,,,,,,,,,,,,,,,,,,2,FF,,0,1.25948,,,,,,,,,,,,,,,,,,,,,,,,,,,,,,,,,,-91,110,1,0,0,response7disk,2,182,-3,15,1,0,0,rectangle,-3,15,1,0,0,5,5,"[271,311,75,59,144,313,152,124,88,125,135,178,278,94,96,267,23,256,159,141]",-3,15,1,0,0,0,19,19,142,1,,,,,,,,,,,,,,,,,,,,,,,
,,,,,,,,,,,,,,,,,,,,,,,,,,,,,,,,,,,,,,,,,,,5f8846eef3c64e2b5bc33259,5fe192a66a3657c24e3ae120,2020-12-22_07h31.52.660,FlowerSimilarity_Experiment,2020.1.2,Win32,60,5fe17d4a51f3a9c1a60f9869,,,,,,,,,,,,,,,,,,,7,PF,,4,3.61027,,,,,,,,,,,,,,,,,,,,,,,,,,,,,,,,,,64,-128,1,0,0,response3disk,5,183,1,-9,1,0,0,rectangle,1,-9,1,0,0,5,4,"[271,311,75,59,144,313,152,124,88,125,135,178,278,94,96,267,23,256,159,141]",1,-9,1,0,0,0,20,20,92,1,,,,,,,,,,,,,,,,,,,,,,,
,,,,,,,,,,,,,,,,,,,,,,,,,,,,,,,,,,,,,,,,,,,5f8846eef3c64e2b5bc33259,5fe192a66a3657c24e3ae120,2020-12-22_07h31.52.660,FlowerSimilarity_Experiment,2020.1.2,Win32,60,5fe17d4a51f3a9c1a60f9869,,,,,,,,,,,,,,,,,,,6,PF,,6,1.744275,,,,,,,,,,,,,,,,,,,,,,,,,,,,,,,,,,120,60,1,0,0,response1disk,5,184,3,-2,1,0,0,rectangle,3,-2,1,0,0,5,3,"[271,311,75,59,144,313,152,124,88,125,135,178,278,94,96,267,23,256,159,141]",3,-2,1,0,0,0,21,21,59,1,,,,,,,,,,,,,,,,,,,,,,,
,,,,,,,,,,,,,,,,,,,,,,,,,,,,,,,,,,,,,,,,,,,5f8846eef3c64e2b5bc33259,5fe192a66a3657c24e3ae120,2020-12-22_07h31.52.660,FlowerSimilarity_Experiment,2020.1.2,Win32,60,5fe17d4a51f3a9c1a60f9869,,,,,,,,,,,,,,,,,,,4,PF,,3,1.26302,,,,,,,,,,,,,,,,,,,,,,,,,,,,,,,,,,-52,-124,1,0,0,response5disk,2,185,-22,-9,1,0,0,rectangle,-22,-9,1,0,0,5,3,"[271,311,75,59,144,313,152,124,88,125,135,178,278,94,96,267,23,256,159,141]",-22,-9,1,0,0,0,22,22,108,1,,,,,,,,,,,,,,,,,,,,,,,
,,,,,,,,,,,,,,,,,,,,,,,,,,,,,,,,,,,,,,,,,,,5f8846eef3c64e2b5bc33259,5fe192a66a3657c24e3ae120,2020-12-22_07h31.52.660,FlowerSimilarity_Experiment,2020.1.2,Win32,60,5fe17d4a51f3a9c1a60f9869,,,,,,,,,,,,,,,,,,,4,PF,,7,1.203285,,,,,,,,,,,,,,,,,,,,,,,,,,,,,,,,,,78,131,1,0,0,response1disk,8,186,11,14,1,0,0,rectangle,11,14,1,0,0,5,4,"[271,311,75,59,144,313,152,124,88,125,135,178,278,94,96,267,23,256,159,141]",11,14,1,0,0,0,23,23,124,1,,,,,,,,,,,,,,,,,,,,,,,
,,,,,,,,,,,,,,,,,,,,,,,,,,,,,,,,,,,,,,,,,,,5f8846eef3c64e2b5bc33259,5fe192a66a3657c24e3ae120,2020-12-22_07h31.52.660,FlowerSimilarity_Experiment,2020.1.2,Win32,60,5fe17d4a51f3a9c1a60f9869,,,,,,,,,,,,,,,,,,,6,FF,,6,1.350535,,,,,,,,,,,,,,,,,,,,,,,,,,,,,,,,,,168,63,1,0,0,response1disk,2,187,31,-8,1,0,0,rectangle,31,-8,1,0,0,5,1,"[271,311,75,59,144,313,152,124,88,125,135,178,278,94,96,267,23,256,159,141]",31,-8,1,0,0,0,24,24,112,1,,,,,,,,,,,,,,,,,,,,,,,
,,,,,,,,,,,,,,,,,,,,,,,,,,,,,,,,,,,,,,,,,,,5f8846eef3c64e2b5bc33259,5fe192a66a3657c24e3ae120,2020-12-22_07h31.52.660,FlowerSimilarity_Experiment,2020.1.2,Win32,60,5fe17d4a51f3a9c1a60f9869,,,,,,,,,,,,,,,,,,,7,FF,,1,1.296695,,,,,,,,,,,,,,,,,,,,,,,,,,,,,,,,,,-98,62,1,0,0,response7disk,3,188,16,-17,1,0,0,rectangle,16,-17,1,0,0,5,1,"[271,311,75,59,144,313,152,124,88,125,135,178,278,94,96,267,23,256,159,141]",16,-17,1,0,0,0,25,25,73,1,,,,,,,,,,,,,,,,,,,,,,,
,,,,,,,,,,,,,,,,,,,,,,,,,,,,,,,,,,,,,,,,,,,5f8846eef3c64e2b5bc33259,5fe192a66a3657c24e3ae120,2020-12-22_07h31.52.660,FlowerSimilarity_Experiment,2020.1.2,Win32,60,5fe17d4a51f3a9c1a60f9869,,,,,,,,,,,,,,,,,,,4,PF,,4,1.502405,,,,,,,,,,,,,,,,,,,,,,,,,,,,,,,,,,22,-151,1,0,0,response3disk,6,189,2,-2,1,0,0,rectangle,2,-2,1,0,0,5,0,"[271,311,75,59,144,313,152,124,88,125,135,178,278,94,96,267,23,256,159,141]",2,-2,1,0,0,0,26,26,120,1,,,,,,,,,,,,,,,,,,,,,,,
,,,,,,,,,,,,,,,,,,,,,,,,,,,,,,,,,,,,,,,,,,,5f8846eef3c64e2b5bc33259,5fe192a66a3657c24e3ae120,2020-12-22_07h31.52.660,FlowerSimilarity_Experiment,2020.1.2,Win32,60,5fe17d4a51f3a9c1a60f9869,,,,,,,,,,,,,,,,,,,8,PF,,6,1.314625,,,,,,,,,,,,,,,,,,,,,,,,,,,,,,,,,,120,67,1,0,0,response1disk,7,190,13,17,1,0,0,rectangle,13,17,1,0,0,5,2,"[271,311,75,59,144,313,152,124,88,125,135,178,278,94,96,267,23,256,159,141]",13,17,1,0,0,0,27,27,23,1,,,,,,,,,,,,,,,,,,,,,,,
,,,,,,,,,,,,,,,,,,,,,,,,,,,,,,,,,,,,,,,,,,,5f8846eef3c64e2b5bc33259,5fe192a66a3657c24e3ae120,2020-12-22_07h31.52.660,FlowerSimilarity_Experiment,2020.1.2,Win32,60,5fe17d4a51f3a9c1a60f9869,,,,,,,,,,,,,,,,,,,4,PF,,2,6.31152,,,,,,,,,,,,,,,,,,,,,,,,,,,,,,,,,,-65,-61,1,0,0,response5disk,7,191,13,-11,1,0,0,rectangle,13,-11,1,0,0,5,0,"[271,311,75,59,144,313,152,124,88,125,135,178,278,94,96,267,23,256,159,141]",13,-11,1,0,0,0,28,28,38,1,,,,,,,,,,,,,,,,,,,,,,,
,,,,,,,,,,,,,,,,,,,,,,,,,,,,,,,,,,,,,,,,,,,5f8846eef3c64e2b5bc33259,5fe192a66a3657c24e3ae120,2020-12-22_07h31.52.660,FlowerSimilarity_Experiment,2020.1.2,Win32,60,5fe17d4a51f3a9c1a60f9869,,,,,,,,,,,,,,,,,,,2,FF,,2,1.303105,,,,,,,,,,,,,,,,,,,,,,,,,,,,,,,,,,-102,-68,1,0,0,response5disk,7,192,5,7,1,0,0,rectangle,5,7,1,0,0,5,2,"[271,311,75,59,144,313,152,124,88,125,135,178,278,94,96,267,23,256,159,141]",5,7,1,0,0,0,29,29,63,1,,,,,,,,,,,,,,,,,,,,,,,
,,,,,,,,,,,,,,,,,,,,,,,,,,,,,,,,,,,,,,,,,,,5f8846eef3c64e2b5bc33259,5fe192a66a3657c24e3ae120,2020-12-22_07h31.52.660,FlowerSimilarity_Experiment,2020.1.2,Win32,60,5fe17d4a51f3a9c1a60f9869,,,,,,,,,,,,,,,,,,,5,PF,,6,0.91843,,,,,,,,,,,,,,,,,,,,,,,,,,,,,,,,,,118,71,1,0,0,response1disk,6,193,27,-10,1,0,0,rectangle,27,-10,1,0,0,5,6,"[271,311,75,59,144,313,152,124,88,125,135,178,278,94,96,267,23,256,159,141]",27,-10,1,0,0,0,30,30,103,1,,,,,,,,,,,,,,,,,,,,,,,
,,,,,,,,,,,,,,,,,,,,,,,,,,,,,,,,,,,,,,,,,,,5f8846eef3c64e2b5bc33259,5fe192a66a3657c24e3ae120,2020-12-22_07h31.52.660,FlowerSimilarity_Experiment,2020.1.2,Win32,60,5fe17d4a51f3a9c1a60f9869,,,,,,,,,,,,,,,,,,,1,FF,,4,1.546675,,,,,,,,,,,,,,,,,,,,,,,,,,,,,,,,,,55,-125,1,0,0,response3disk,4,194,27,-9,1,0,0,rectangle,27,-9,1,0,0,5,2,"[271,311,75,59,144,313,152,124,88,125,135,178,278,94,96,267,23,256,159,141]",27,-9,1,0,0,0,31,31,135,1,,,,,,,,,,,,,,,,,,,,,,,
,,,,,,,,,,,,,,,,,,,,,,,,,,,,,,,,,,,,,,,,,,,5f8846eef3c64e2b5bc33259,5fe192a66a3657c24e3ae120,2020-12-22_07h31.52.660,FlowerSimilarity_Experiment,2020.1.2,Win32,60,5fe17d4a51f3a9c1a60f9869,,,,,,,,,,,,,,,,,,,2,PF,,3,1.687095,,,,,,,,,,,,,,,,,,,,,,,,,,,,,,,,,,-83,-127,1,0,0,response5disk,7,195,-4,20,1,0,0,rectangle,-4,20,1,0,0,5,4,"[271,311,75,59,144,313,152,124,88,125,135,178,278,94,96,267,23,256,159,141]",-4,20,1,0,0,0,32,32,107,1,,,,,,,,,,,,,,,,,,,,,,,
,,,,,,,,,,,,,,,,,,,,,,,,,,,,,,,,,,,,,,,,,,,5f8846eef3c64e2b5bc33259,5fe192a66a3657c24e3ae120,2020-12-22_07h31.52.660,FlowerSimilarity_Experiment,2020.1.2,Win32,60,5fe17d4a51f3a9c1a60f9869,,,,,,,,,,,,,,,,,,,7,FF,,2,1.42648,,,,,,,,,,,,,,,,,,,,,,,,,,,,,,,,,,-112,-60,1,0,0,response5disk,4,196,13,9,1,0,0,rectangle,13,9,1,0,0,5,6,"[271,311,75,59,144,313,152,124,88,125,135,178,278,94,96,267,23,256,159,141]",13,9,1,0,0,0,33,33,158,1,,,,,,,,,,,,,,,,,,,,,,,
,,,,,,,,,,,,,,,,,,,,,,,,,,,,,,,,,,,,,,,,,,,5f8846eef3c64e2b5bc33259,5fe192a66a3657c24e3ae120,2020-12-22_07h31.52.660,FlowerSimilarity_Experiment,2020.1.2,Win32,60,5fe17d4a51f3a9c1a60f9869,,,,,,,,,,,,,,,,,,,3,PF,,3,1.322415,,,,,,,,,,,,,,,,,,,,,,,,,,,,,,,,,,-45,-131,1,0,0,response5disk,4,197,-10,3,1,0,0,rectangle,-10,3,1,0,0,5,7,"[271,311,75,59,144,313,152,124,88,125,135,178,278,94,96,267,23,256,159,141]",-10,3,1,0,0,0,34,34,30,1,,,,,,,,,,,,,,,,,,,,,,,
,,,,,,,,,,,,,,,,,,,,,,,,,,,,,,,,,,,,,,,,,,,5f8846eef3c64e2b5bc33259,5fe192a66a3657c24e3ae120,2020-12-22_07h31.52.660,FlowerSimilarity_Experiment,2020.1.2,Win32,60,5fe17d4a51f3a9c1a60f9869,,,,,,,,,,,,,,,,,,,4,FF,,2,1.26708,,,,,,,,,,,,,,,,,,,,,,,,,,,,,,,,,,-84,-68,1,0,0,response5disk,2,198,32,-12,1,0,0,rectangle,32,-12,1,0,0,5,3,"[271,311,75,59,144,313,152,124,88,125,135,178,278,94,96,267,23,256,159,141]",32,-12,1,0,0,0,35,35,13,1,,,,,,,,,,,,,,,,,,,,,,,
,,,,,,,,,,,,,,,,,,,,,,,,,,,,,,,,,,,,,,,,,,,5f8846eef3c64e2b5bc33259,5fe192a66a3657c24e3ae120,2020-12-22_07h31.52.660,FlowerSimilarity_Experiment,2020.1.2,Win32,60,5fe17d4a51f3a9c1a60f9869,,,,,,,,,,,,,,,,,,,6,FF,,6,1.0308,,,,,,,,,,,,,,,,,,,,,,,,,,,,,,,,,,105,75,1,0,0,response1disk,7,199,7,0,1,0,0,rectangle,7,0,1,0,0,5,7,"[271,311,75,59,144,313,152,124,88,125,135,178,278,94,96,267,23,256,159,141]",7,0,1,0,0,0,36,36,18,1,,,,,,,,,,,,,,,,,,,,,,,
,,,,,,,,,,,,,,,,,,,,,,,,,,,,,,,,,,,,,,,,,,,5f8846eef3c64e2b5bc33259,5fe192a66a3657c24e3ae120,2020-12-22_07h31.52.660,FlowerSimilarity_Experiment,2020.1.2,Win32,60,5fe17d4a51f3a9c1a60f9869,,,,,,,,,,,,,,,,,,,5,PF,,3,1.985405,,,,,,,,,,,,,,,,,,,,,,,,,,,,,,,,,,-61,-114,1,0,0,response5disk,7,200,9,-15,1,0,0,rectangle,9,-15,1,0,0,5,7,"[271,311,75,59,144,313,152,124,88,125,135,178,278,94,96,267,23,256,159,141]",9,-15,1,0,0,0,37,37,146,1,,,,,,,,,,,,,,,,,,,,,,,
,,,,,,,,,,,,,,,,,,,,,,,,,,,,,,,,,,,,,,,,,,,5f8846eef3c64e2b5bc33259,5fe192a66a3657c24e3ae120,2020-12-22_07h31.52.660,FlowerSimilarity_Experiment,2020.1.2,Win32,60,5fe17d4a51f3a9c1a60f9869,,,,,,,,,,,,,,,,,,,5,FF,,7,1.202885,,,,,,,,,,,,,,,,,,,,,,,,,,,,,,,,,,62,121,1,0,0,response1disk,4,201,16,8,1,0,0,rectangle,16,8,1,0,0,5,4,"[271,311,75,59,144,313,152,124,88,125,135,178,278,94,96,267,23,256,159,141]",16,8,1,0,0,0,38,38,8,1,,,,,,,,,,,,,,,,,,,,,,,
,,,,,,,,,,,,,,,,,,,,,,,,,,,,,,,,,,,,,,,,,,,5f8846eef3c64e2b5bc33259,5fe192a66a3657c24e3ae120,2020-12-22_07h31.52.660,FlowerSimilarity_Experiment,2020.1.2,Win32,60,5fe17d4a51f3a9c1a60f9869,,,,,,,,,,,,,,,,,,,9,PF,,6,1.058115,,,,,,,,,,,,,,,,,,,,,,,,,,,,,,,,,,90,63,1,0,0,response1disk,3,202,-10,-10,1,0,0,rectangle,-10,-10,1,0,0,5,3,"[271,311,75,59,144,313,152,124,88,125,135,178,278,94,96,267,23,256,159,141]",-10,-10,1,0,0,0,39,39,119,1,,,,,,,,,,,,,,,,,,,,,,,
,,,,,,,,,,,,,,,,,,,,,,,,,,,,,,,,,,,,,,,,,,,5f8846eef3c64e2b5bc33259,5fe192a66a3657c24e3ae120,2020-12-22_07h31.52.660,FlowerSimilarity_Experiment,2020.1.2,Win32,60,5fe17d4a51f3a9c1a60f9869,,,,,,,,,,,,,,,,,,,4,FF,,2,1.540115,,,,,,,,,,,,,,,,,,,,,,,,,,,,,,,,,,-131,-100,1,0,0,response5disk,7,203,-23,7,1,0,0,rectangle,-23,7,1,0,0,5,3,"[271,311,75,59,144,313,152,124,88,125,135,178,278,94,96,267,23,256,159,141]",-23,7,1,0,0,0,40,40,87,1,,,,,,,,,,,,,,,,,,,,,,,
