key_resp.keys,key_resp.rt,key_resp_16.keys,key_resp_16.rt,key_resp_2.keys,key_resp_2.rt,X Scale,ratio_pxpermm,screen_size_x,screen_size_y,testsize,key_resp_3.keys,key_resp_3.rt,key_resp_4.keys,key_resp_4.rt,line_size,key_resp_5.keys,key_resp_5.rt,key_resp_6.keys,key_resp_6.rt,key_resp_8.keys,key_resp_8.rt,key_resp_7.keys,key_resp_7.rt,key_resp_12.keys,key_resp_12.rt,key_resp_11.keys,key_resp_11.rt,key_resp_18.keys,key_resp_18.rt,key_resp_21.keys,key_resp_21.rt,key_resp_13.keys,key_resp_13.rt,key_resp_19.keys,key_resp_19.rt,ballposx,viewer_distance,trials.thisRepN,trials.thisTrialN,trials.thisN,trials.thisIndex,trials.ran,participant,session,date,expName,psychopyVersion,OS,frameRate,study_id,viewerdistancecm,DVA_to_distance,radius_F,radius_P,r_F,R_P,key_resp_20.keys,key_resp_20.rt,key_resp_14.keys,key_resp_14.rt,key_resp_15.keys,key_resp_15.rt,key_resp_17.keys,key_resp_17.rt,key_resp_9.keys,key_resp_9.rt,key_resp_10.keys,key_resp_10.rt,Flower1,Ecc,Flower_2,similarity,response_time,mouse_5.x,mouse_5.y,mouse_5.leftButton,mouse_5.midButton,mouse_5.rightButton,mouse_5.clicked_name,mouse_10.x,mouse_10.y,mouse_10.leftButton,mouse_10.midButton,mouse_10.rightButton,mouse_10.clicked_name,mouse_7.x,mouse_7.y,mouse_7.leftButton,mouse_7.midButton,mouse_7.rightButton,catchnumberprac,mouse_6.x,mouse_6.y,mouse_6.leftButton,mouse_6.midButton,mouse_6.rightButton,duringprac.thisRepN,duringprac.thisTrialN,duringprac.thisN,duringprac.thisIndex,duringprac.ran,mouse_7.clicked_name,catchprac,mouse_6.clicked_name,key_resp_22.keys,key_resp_22.rt,mouse.x,mouse.y,mouse.leftButton,mouse.midButton,mouse.rightButton,mouse.clicked_name,Flower2,trialnumber,mouse_2.x,mouse_2.y,mouse_2.leftButton,mouse_2.midButton,mouse_2.rightButton,mouse_2.clicked_name,mouse_3.x,mouse_3.y,mouse_3.leftButton,mouse_3.midButton,mouse_3.rightButton,catchresponse,catchnumber,catchtrialorder,mouse_11.x,mouse_11.y,mouse_11.leftButton,mouse_11.midButton,mouse_11.rightButton,trials_2.thisRepN,trials_2.thisTrialN,trials_2.thisN,trials_2.thisIndex,trials_2.ran,mouse_3.clicked_name,mouse_11.clicked_name,trials_3.thisRepN,trials_3.thisTrialN,trials_3.thisN,trials_3.thisIndex,trials_3.ran,answer1,rt1,answer2,rt2,answer3,rt3,answer4,rt4,answer5,rt5,answer6,rt6,answer8,rt8,answer7,rt7
space,3.353455,space,51.99311,space,10.434655,40.9,4.09,333.9853301,187.7750611,1366,space,49.78921,space,14.565645,81.8,space,18.014015,space,3.019005,space,0.639015,space,3.838105,space,10.428635,space,8.727345,space,18.41209,space,14.22102,space,25.157795,return,23.27955,-715.101,1284.726595,0,0,0,0,1,5fbec16fce816f0d19f36f4c,5fe1928de6b281c3447853da,2020-12-22_06h30.53.883,FlowerSimilarity_Experiment,2020.1.2,Win32,60,5fe17d4a51f3a9c1a60f9869,,,,,,,,,,,,,,,,,,,,,,,,,,,,,,,,,,,,,,,,,,,,,,,,,,,,,,,,,,,,,,,,,,,,,,,,,,,,,,,,,,,,,,,,,,,,,,,,,,,,,,,,,,,,,,,
,,,,,,,,,,,,,,,,,,,,,,,,,,,,,,,,,,return,9.920485,-711.003,1280.553147,1,0,1,0,1,5fbec16fce816f0d19f36f4c,5fe1928de6b281c3447853da,2020-12-22_06h30.53.883,FlowerSimilarity_Experiment,2020.1.2,Win32,60,5fe17d4a51f3a9c1a60f9869,,,,,,,,,,,,,,,,,,,,,,,,,,,,,,,,,,,,,,,,,,,,,,,,,,,,,,,,,,,,,,,,,,,,,,,,,,,,,,,,,,,,,,,,,,,,,,,,,,,,,,,,,,,,,,,
,,,,,,,,,,,,,,,,,,,,,,,,,,,,,,,,,,return,9.874545,-704.856,1274.292974,2,0,2,0,1,5fbec16fce816f0d19f36f4c,5fe1928de6b281c3447853da,2020-12-22_06h30.53.883,FlowerSimilarity_Experiment,2020.1.2,Win32,60,5fe17d4a51f3a9c1a60f9869,,,,,,,,,,,,,,,,,,,,,,,,,,,,,,,,,,,,,,,,,,,,,,,,,,,,,,,,,,,,,,,,,,,,,,,,,,,,,,,,,,,,,,,,,,,,,,,,,,,,,,,,,,,,,,,
,,,,,,,,,,,,,,,,,,,,,,,,,,,,,,,,,,return,9.88893,-706.905,1276.379698,3,0,3,0,1,5fbec16fce816f0d19f36f4c,5fe1928de6b281c3447853da,2020-12-22_06h30.53.883,FlowerSimilarity_Experiment,2020.1.2,Win32,60,5fe17d4a51f3a9c1a60f9869,,,,,,,,,,,,,,,,,,,,,,,,,,,,,,,,,,,,,,,,,,,,,,,,,,,,,,,,,,,,,,,,,,,,,,,,,,,,,,,,,,,,,,,,,,,,,,,,,,,,,,,,,,,,,,,
,,,,,,,,,,,,,,,,,,,,,,,,,,,,,,,,,,return,10.0784,-729.444,1299.333666,4,0,4,0,1,5fbec16fce816f0d19f36f4c,5fe1928de6b281c3447853da,2020-12-22_06h30.53.883,FlowerSimilarity_Experiment,2020.1.2,Win32,60,5fe17d4a51f3a9c1a60f9869,,,,,,,,,,,,,,,,,,,,,,,,,,,,,,,,,,,,,,,,,,,,,,,,,,,,,,,,,,,,,,,,,,,,,,,,,,,,,,,,,,,,,,,,,,,,,,,,,,,,,,,,,,,,,,,
,,,,,,,,,,,,,,,,,,,,,,,,,,,,,,,,,,,,,,,,,,,5fbec16fce816f0d19f36f4c,5fe1928de6b281c3447853da,2020-12-22_06h30.53.883,FlowerSimilarity_Experiment,2020.1.2,Win32,60,5fe17d4a51f3a9c1a60f9869,128,22.34247512,137.0710848,913.8072323,91.38072323,411.2132545,space,4.94649,space,11.22242,space,22.02921,space,6.01184,space,6.332275,space,6.30238,5,FF,2,4,6.26215,46,-71,1,0,0,response3disk_5,1,-6,1,0,0,rectangle_8,1,-6,1,0,0,0,1,-6,1,0,0,0,0,0,5,1,,,,,,,,,,,,,,,,,,,,,,,,,,,,,,,,,,,,,,,,,,,,,,,,,,,,,,,,,,,,
,,,,,,,,,,,,,,,,,,,,,,,,,,,,,,,,,,,,,,,,,,,5fbec16fce816f0d19f36f4c,5fe1928de6b281c3447853da,2020-12-22_06h30.53.883,FlowerSimilarity_Experiment,2020.1.2,Win32,60,5fe17d4a51f3a9c1a60f9869,,,,,,,,,,,,,,,,,,,5,PF,3,6,15.01897,100,32,1,0,0,response1disk_5,5,2,1,0,0,rectangle_8,5,2,1,0,0,0,5,2,1,0,0,0,1,1,6,1,,,,,,,,,,,,,,,,,,,,,,,,,,,,,,,,,,,,,,,,,,,,,,,,,,,,,,,,,,,,
,,,,,,,,,,,,,,,,,,,,,,,,,,,,,,,,,,,,,,,,,,,5fbec16fce816f0d19f36f4c,5fe1928de6b281c3447853da,2020-12-22_06h30.53.883,FlowerSimilarity_Experiment,2020.1.2,Win32,60,5fe17d4a51f3a9c1a60f9869,,,,,,,,,,,,,,,,,,,5,PF,8,6,2.88605,96,75,1,0,0,response1disk_5,7,-6,1,0,0,rectangle_8,7,-6,1,0,0,0,7,-6,1,0,0,0,2,2,4,1,,,,,,,,,,,,,,,,,,,,,,,,,,,,,,,,,,,,,,,,,,,,,,,,,,,,,,,,,,,,
,,,,,,,,,,,,,,,,,,,,,,,,,,,,,,,,,,,,,,,,,,,5fbec16fce816f0d19f36f4c,5fe1928de6b281c3447853da,2020-12-22_06h30.53.883,FlowerSimilarity_Experiment,2020.1.2,Win32,60,5fe17d4a51f3a9c1a60f9869,,,,,,,,,,,,,,,,,,,1,FF,3,2,3.841985,-53,-40,1,0,0,response5disk_5,6,-4,1,0,0,rectangle_8,-35,55,1,0,0,0,-7,13,1,0,0,0,3,3,3,1,response7disk_7,0,rectangle_4,,,,,,,,,,,,,,,,,,,,,,,,,,,,,,,,,,,,,,,,,,,,,,,,,,,,,,,,,
,,,,,,,,,,,,,,,,,,,,,,,,,,,,,,,,,,,,,,,,,,,5fbec16fce816f0d19f36f4c,5fe1928de6b281c3447853da,2020-12-22_06h30.53.883,FlowerSimilarity_Experiment,2020.1.2,Win32,60,5fe17d4a51f3a9c1a60f9869,,,,,,,,,,,,,,,,,,,9,PF,3,5,4.97674,108,-26,1,0,0,response3disk_5,1,-2,1,0,0,rectangle_8,1,-2,1,0,0,0,1,-2,1,0,0,0,4,4,2,1,,,,,,,,,,,,,,,,,,,,,,,,,,,,,,,,,,,,,,,,,,,,,,,,,,,,,,,,,,,,
,,,,,,,,,,,,,,,,,,,,,,,,,,,,,,,,,,,,,,,,,,,5fbec16fce816f0d19f36f4c,5fe1928de6b281c3447853da,2020-12-22_06h30.53.883,FlowerSimilarity_Experiment,2020.1.2,Win32,60,5fe17d4a51f3a9c1a60f9869,,,,,,,,,,,,,,,,,,,4,PF,4,0,3.85457,-19,85,1,0,0,response7disk_5,0,-3,1,0,0,rectangle_8,0,-3,1,0,0,0,0,-3,1,0,0,0,5,5,1,1,,,,,,,,,,,,,,,,,,,,,,,,,,,,,,,,,,,,,,,,,,,,,,,,,,,,,,,,,,,,
,,,,,,,,,,,,,,,,,,,,,,,,,,,,,,,,,,,,,,,,,,,5fbec16fce816f0d19f36f4c,5fe1928de6b281c3447853da,2020-12-22_06h30.53.883,FlowerSimilarity_Experiment,2020.1.2,Win32,60,5fe17d4a51f3a9c1a60f9869,,,,,,,,,,,,,,,,,,,9,FF,6,3,3.93115,-21,-70,1,0,0,response5disk_5,6,-5,1,0,0,rectangle_8,6,-5,1,0,0,0,6,-5,1,0,0,0,6,6,0,1,,,,,,,,,,,,,,,,,,,,,,,,,,,,,,,,,,,,,,,,,,,,,,,,,,,,,,,,,,,,
,,,,,,,,,,,,,,,,,,,,,,,,,,,,,,,,,,,,,,,,,,,5fbec16fce816f0d19f36f4c,5fe1928de6b281c3447853da,2020-12-22_06h30.53.883,FlowerSimilarity_Experiment,2020.1.2,Win32,60,5fe17d4a51f3a9c1a60f9869,,,,,,,,,,,,,,,,,,,7,FF,,4,4.315845,,,,,,,,,,,,,,,,,,,,,,,,,,,,,,,,space,4.108165,47,-78,1,0,0,response3disk,5,1,8,5,1,0,0,rectangle,8,5,1,0,0,,1,"[33,274,112,119,125,312,86,107,268,161,281,286,261,153,139,289,128,83,173,209]",8,5,1,0,0,0,0,0,156,1,,,,,,,,,,,,,,,,,,,,,,,
,,,,,,,,,,,,,,,,,,,,,,,,,,,,,,,,,,,,,,,,,,,5fbec16fce816f0d19f36f4c,5fe1928de6b281c3447853da,2020-12-22_06h30.53.883,FlowerSimilarity_Experiment,2020.1.2,Win32,60,5fe17d4a51f3a9c1a60f9869,,,,,,,,,,,,,,,,,,,9,PF,,2,2.701535,,,,,,,,,,,,,,,,,,,,,,,,,,,,,,,,,,-74,-33,1,0,0,response5disk,7,2,-8,-6,1,0,0,rectangle,-8,-6,1,0,0,,7,"[33,274,112,119,125,312,86,107,268,161,281,286,261,153,139,289,128,83,173,209]",-8,-6,1,0,0,0,1,1,121,1,,,,,,,,,,,,,,,,,,,,,,,
,,,,,,,,,,,,,,,,,,,,,,,,,,,,,,,,,,,,,,,,,,,5fbec16fce816f0d19f36f4c,5fe1928de6b281c3447853da,2020-12-22_06h30.53.883,FlowerSimilarity_Experiment,2020.1.2,Win32,60,5fe17d4a51f3a9c1a60f9869,,,,,,,,,,,,,,,,,,,1,FF,,6,2.43001,,,,,,,,,,,,,,,,,,,,,,,,,,,,,,,,,,80,23,1,0,0,response1disk,8,3,-6,-8,1,0,0,rectangle,-6,-8,1,0,0,,6,"[33,274,112,119,125,312,86,107,268,161,281,286,261,153,139,289,128,83,173,209]",-6,-8,1,0,0,0,2,2,27,1,,,,,,,,,,,,,,,,,,,,,,,
,,,,,,,,,,,,,,,,,,,,,,,,,,,,,,,,,,,,,,,,,,,5fbec16fce816f0d19f36f4c,5fe1928de6b281c3447853da,2020-12-22_06h30.53.883,FlowerSimilarity_Experiment,2020.1.2,Win32,60,5fe17d4a51f3a9c1a60f9869,,,,,,,,,,,,,,,,,,,4,FF,,2,3.04479,,,,,,,,,,,,,,,,,,,,,,,,,,,,,,,,,,-91,-63,1,0,0,response5disk,2,4,5,3,1,0,0,rectangle,5,3,1,0,0,,3,"[33,274,112,119,125,312,86,107,268,161,281,286,261,153,139,289,128,83,173,209]",5,3,1,0,0,0,3,3,13,1,,,,,,,,,,,,,,,,,,,,,,,
,,,,,,,,,,,,,,,,,,,,,,,,,,,,,,,,,,,,,,,,,,,5fbec16fce816f0d19f36f4c,5fe1928de6b281c3447853da,2020-12-22_06h30.53.883,FlowerSimilarity_Experiment,2020.1.2,Win32,60,5fe17d4a51f3a9c1a60f9869,,,,,,,,,,,,,,,,,,,3,PF,,3,2.13891,,,,,,,,,,,,,,,,,,,,,,,,,,,,,,,,,,-39,-62,1,0,0,response5disk,3,5,3,7,1,0,0,rectangle,3,7,1,0,0,,7,"[33,274,112,119,125,312,86,107,268,161,281,286,261,153,139,289,128,83,173,209]",3,7,1,0,0,0,4,4,4,1,,,,,,,,,,,,,,,,,,,,,,,
,,,,,,,,,,,,,,,,,,,,,,,,,,,,,,,,,,,,,,,,,,,5fbec16fce816f0d19f36f4c,5fe1928de6b281c3447853da,2020-12-22_06h30.53.883,FlowerSimilarity_Experiment,2020.1.2,Win32,60,5fe17d4a51f3a9c1a60f9869,,,,,,,,,,,,,,,,,,,5,FF,,3,3.938545,,,,,,,,,,,,,,,,,,,,,,,,,,,,,,,,,,-76,-94,1,0,0,response5disk,3,6,2,9,1,0,0,rectangle,2,9,1,0,0,,4,"[33,274,112,119,125,312,86,107,268,161,281,286,261,153,139,289,128,83,173,209]",2,9,1,0,0,0,5,5,25,1,,,,,,,,,,,,,,,,,,,,,,,
,,,,,,,,,,,,,,,,,,,,,,,,,,,,,,,,,,,,,,,,,,,5fbec16fce816f0d19f36f4c,5fe1928de6b281c3447853da,2020-12-22_06h30.53.883,FlowerSimilarity_Experiment,2020.1.2,Win32,60,5fe17d4a51f3a9c1a60f9869,,,,,,,,,,,,,,,,,,,8,PF,,2,2.995745,,,,,,,,,,,,,,,,,,,,,,,,,,,,,,,,,,-70,-43,1,0,0,response5disk,4,7,-1,-4,1,0,0,rectangle,-1,-4,1,0,0,,7,"[33,274,112,119,125,312,86,107,268,161,281,286,261,153,139,289,128,83,173,209]",-1,-4,1,0,0,0,6,6,78,1,,,,,,,,,,,,,,,,,,,,,,,
,,,,,,,,,,,,,,,,,,,,,,,,,,,,,,,,,,,,,,,,,,,5fbec16fce816f0d19f36f4c,5fe1928de6b281c3447853da,2020-12-22_06h30.53.883,FlowerSimilarity_Experiment,2020.1.2,Win32,60,5fe17d4a51f3a9c1a60f9869,,,,,,,,,,,,,,,,,,,5,PF,,3,3.60679,,,,,,,,,,,,,,,,,,,,,,,,,,,,,,,,,,-48,-92,1,0,0,response5disk,3,8,-3,-4,1,0,0,rectangle,-3,-4,1,0,0,,7,"[33,274,112,119,125,312,86,107,268,161,281,286,261,153,139,289,128,83,173,209]",-3,-4,1,0,0,0,7,7,109,1,,,,,,,,,,,,,,,,,,,,,,,
,,,,,,,,,,,,,,,,,,,,,,,,,,,,,,,,,,,,,,,,,,,5fbec16fce816f0d19f36f4c,5fe1928de6b281c3447853da,2020-12-22_06h30.53.883,FlowerSimilarity_Experiment,2020.1.2,Win32,60,5fe17d4a51f3a9c1a60f9869,,,,,,,,,,,,,,,,,,,7,FF,,5,2.0084,,,,,,,,,,,,,,,,,,,,,,,,,,,,,,,,,,68,-44,1,0,0,response3disk,8,9,12,-5,1,0,0,rectangle,12,-5,1,0,0,,3,"[33,274,112,119,125,312,86,107,268,161,281,286,261,153,139,289,128,83,173,209]",12,-5,1,0,0,0,8,8,97,1,,,,,,,,,,,,,,,,,,,,,,,
,,,,,,,,,,,,,,,,,,,,,,,,,,,,,,,,,,,,,,,,,,,5fbec16fce816f0d19f36f4c,5fe1928de6b281c3447853da,2020-12-22_06h30.53.883,FlowerSimilarity_Experiment,2020.1.2,Win32,60,5fe17d4a51f3a9c1a60f9869,,,,,,,,,,,,,,,,,,,9,FF,,4,2.50429,,,,,,,,,,,,,,,,,,,,,,,,,,,,,,,,,,35,-69,1,0,0,response3disk,6,10,-15,7,1,0,0,rectangle,-15,7,1,0,0,,5,"[33,274,112,119,125,312,86,107,268,161,281,286,261,153,139,289,128,83,173,209]",-15,7,1,0,0,0,9,9,117,1,,,,,,,,,,,,,,,,,,,,,,,
,,,,,,,,,,,,,,,,,,,,,,,,,,,,,,,,,,,,,,,,,,,5fbec16fce816f0d19f36f4c,5fe1928de6b281c3447853da,2020-12-22_06h30.53.883,FlowerSimilarity_Experiment,2020.1.2,Win32,60,5fe17d4a51f3a9c1a60f9869,,,,,,,,,,,,,,,,,,,3,PF,,3,1.599395,,,,,,,,,,,,,,,,,,,,,,,,,,,,,,,,,,-33,-61,1,0,0,response5disk,9,11,4,-5,1,0,0,rectangle,4,-5,1,0,0,,1,"[33,274,112,119,125,312,86,107,268,161,281,286,261,153,139,289,128,83,173,209]",4,-5,1,0,0,0,10,10,79,1,,,,,,,,,,,,,,,,,,,,,,,
,,,,,,,,,,,,,,,,,,,,,,,,,,,,,,,,,,,,,,,,,,,5fbec16fce816f0d19f36f4c,5fe1928de6b281c3447853da,2020-12-22_06h30.53.883,FlowerSimilarity_Experiment,2020.1.2,Win32,60,5fe17d4a51f3a9c1a60f9869,,,,,,,,,,,,,,,,,,,3,FF,,5,2.119545,,,,,,,,,,,,,,,,,,,,,,,,,,,,,,,,,,89,-41,1,0,0,response3disk,1,12,2,10,1,0,0,rectangle,2,10,1,0,0,,5,"[33,274,112,119,125,312,86,107,268,161,281,286,261,153,139,289,128,83,173,209]",2,10,1,0,0,0,11,11,125,1,,,,,,,,,,,,,,,,,,,,,,,
,,,,,,,,,,,,,,,,,,,,,,,,,,,,,,,,,,,,,,,,,,,5fbec16fce816f0d19f36f4c,5fe1928de6b281c3447853da,2020-12-22_06h30.53.883,FlowerSimilarity_Experiment,2020.1.2,Win32,60,5fe17d4a51f3a9c1a60f9869,,,,,,,,,,,,,,,,,,,9,FF,,6,1.33268,,,,,,,,,,,,,,,,,,,,,,,,,,,,,,,,,,76,31,1,0,0,response1disk,3,13,5,-3,1,0,0,rectangle,5,-3,1,0,0,,4,"[33,274,112,119,125,312,86,107,268,161,281,286,261,153,139,289,128,83,173,209]",5,-3,1,0,0,0,12,12,141,1,,,,,,,,,,,,,,,,,,,,,,,
,,,,,,,,,,,,,,,,,,,,,,,,,,,,,,,,,,,,,,,,,,,5fbec16fce816f0d19f36f4c,5fe1928de6b281c3447853da,2020-12-22_06h30.53.883,FlowerSimilarity_Experiment,2020.1.2,Win32,60,5fe17d4a51f3a9c1a60f9869,,,,,,,,,,,,,,,,,,,2,PF,,4,3.12652,,,,,,,,,,,,,,,,,,,,,,,,,,,,,,,,,,64,-81,1,0,0,response3disk,3,14,-2,2,1,0,0,rectangle,-2,2,1,0,0,,6,"[33,274,112,119,125,312,86,107,268,161,281,286,261,153,139,289,128,83,173,209]",-2,2,1,0,0,0,13,13,69,1,,,,,,,,,,,,,,,,,,,,,,,
,,,,,,,,,,,,,,,,,,,,,,,,,,,,,,,,,,,,,,,,,,,5fbec16fce816f0d19f36f4c,5fe1928de6b281c3447853da,2020-12-22_06h30.53.883,FlowerSimilarity_Experiment,2020.1.2,Win32,60,5fe17d4a51f3a9c1a60f9869,,,,,,,,,,,,,,,,,,,8,FF,,4,2.82266,,,,,,,,,,,,,,,,,,,,,,,,,,,,,,,,,,42,-56,1,0,0,response3disk,4,15,9,-7,1,0,0,rectangle,9,-7,1,0,0,,3,"[33,274,112,119,125,312,86,107,268,161,281,286,261,153,139,289,128,83,173,209]",9,-7,1,0,0,0,14,14,88,1,,,,,,,,,,,,,,,,,,,,,,,
,,,,,,,,,,,,,,,,,,,,,,,,,,,,,,,,,,,,,,,,,,,5fbec16fce816f0d19f36f4c,5fe1928de6b281c3447853da,2020-12-22_06h30.53.883,FlowerSimilarity_Experiment,2020.1.2,Win32,60,5fe17d4a51f3a9c1a60f9869,,,,,,,,,,,,,,,,,,,5,FF,,0,2.755775,,,,,,,,,,,,,,,,,,,,,,,,,,,,,,,,,,-51,80,1,0,0,response7disk,5,16,-3,4,1,0,0,rectangle,-3,4,1,0,0,,3,"[33,274,112,119,125,312,86,107,268,161,281,286,261,153,139,289,128,83,173,209]",-3,4,1,0,0,0,15,15,19,1,,,,,,,,,,,,,,,,,,,,,,,
,,,,,,,,,,,,,,,,,,,,,,,,,,,,,,,,,,,,,,,,,,,5fbec16fce816f0d19f36f4c,5fe1928de6b281c3447853da,2020-12-22_06h30.53.883,FlowerSimilarity_Experiment,2020.1.2,Win32,60,5fe17d4a51f3a9c1a60f9869,,,,,,,,,,,,,,,,,,,2,FF,,4,3.934255,,,,,,,,,,,,,,,,,,,,,,,,,,,,,,,,,,67,-75,1,0,0,response3disk,8,17,-8,10,1,0,0,rectangle,-8,10,1,0,0,,3,"[33,274,112,119,125,312,86,107,268,161,281,286,261,153,139,289,128,83,173,209]",-8,10,1,0,0,0,16,16,62,1,,,,,,,,,,,,,,,,,,,,,,,
,,,,,,,,,,,,,,,,,,,,,,,,,,,,,,,,,,,,,,,,,,,5fbec16fce816f0d19f36f4c,5fe1928de6b281c3447853da,2020-12-22_06h30.53.883,FlowerSimilarity_Experiment,2020.1.2,Win32,60,5fe17d4a51f3a9c1a60f9869,,,,,,,,,,,,,,,,,,,5,FF,,6,2.04396,,,,,,,,,,,,,,,,,,,,,,,,,,,,,,,,,,99,49,1,0,0,response1disk,6,18,20,4,1,0,0,rectangle,20,4,1,0,0,,6,"[33,274,112,119,125,312,86,107,268,161,281,286,261,153,139,289,128,83,173,209]",20,4,1,0,0,0,17,17,12,1,,,,,,,,,,,,,,,,,,,,,,,
,,,,,,,,,,,,,,,,,,,,,,,,,,,,,,,,,,,,,,,,,,,5fbec16fce816f0d19f36f4c,5fe1928de6b281c3447853da,2020-12-22_06h30.53.883,FlowerSimilarity_Experiment,2020.1.2,Win32,60,5fe17d4a51f3a9c1a60f9869,,,,,,,,,,,,,,,,,,,8,FF,,4,1.947975,,,,,,,,,,,,,,,,,,,,,,,,,,,,,,,,,,36,-62,1,0,0,response3disk,7,19,-6,0,1,0,0,rectangle,-6,0,1,0,0,,7,"[33,274,112,119,125,312,86,107,268,161,281,286,261,153,139,289,128,83,173,209]",-6,0,1,0,0,0,18,18,86,1,,,,,,,,,,,,,,,,,,,,,,,
,,,,,,,,,,,,,,,,,,,,,,,,,,,,,,,,,,,,,,,,,,,5fbec16fce816f0d19f36f4c,5fe1928de6b281c3447853da,2020-12-22_06h30.53.883,FlowerSimilarity_Experiment,2020.1.2,Win32,60,5fe17d4a51f3a9c1a60f9869,,,,,,,,,,,,,,,,,,,5,FF,,4,2.2194,,,,,,,,,,,,,,,,,,,,,,,,,,,,,,,,,,62,-77,1,0,0,response3disk,2,20,0,1,1,0,0,rectangle,0,1,1,0,0,,7,"[33,274,112,119,125,312,86,107,268,161,281,286,261,153,139,289,128,83,173,209]",0,1,1,0,0,0,19,19,55,1,,,,,,,,,,,,,,,,,,,,,,,
,,,,,,,,,,,,,,,,,,,,,,,,,,,,,,,,,,,,,,,,,,,5fbec16fce816f0d19f36f4c,5fe1928de6b281c3447853da,2020-12-22_06h30.53.883,FlowerSimilarity_Experiment,2020.1.2,Win32,60,5fe17d4a51f3a9c1a60f9869,,,,,,,,,,,,,,,,,,,8,PF,,2,1.64576,,,,,,,,,,,,,,,,,,,,,,,,,,,,,,,,,,-76,-52,1,0,0,response5disk,8,21,-1,-9,1,0,0,rectangle,-1,-9,1,0,0,,7,"[33,274,112,119,125,312,86,107,268,161,281,286,261,153,139,289,128,83,173,209]",-1,-9,1,0,0,0,20,20,153,1,,,,,,,,,,,,,,,,,,,,,,,
,,,,,,,,,,,,,,,,,,,,,,,,,,,,,,,,,,,,,,,,,,,5fbec16fce816f0d19f36f4c,5fe1928de6b281c3447853da,2020-12-22_06h30.53.883,FlowerSimilarity_Experiment,2020.1.2,Win32,60,5fe17d4a51f3a9c1a60f9869,,,,,,,,,,,,,,,,,,,2,PF,,2,1.649565,,,,,,,,,,,,,,,,,,,,,,,,,,,,,,,,,,-78,-51,1,0,0,response5disk,7,22,2,-2,1,0,0,rectangle,2,-2,1,0,0,,0,"[33,274,112,119,125,312,86,107,268,161,281,286,261,153,139,289,128,83,173,209]",2,-2,1,0,0,0,21,21,107,1,,,,,,,,,,,,,,,,,,,,,,,
,,,,,,,,,,,,,,,,,,,,,,,,,,,,,,,,,,,,,,,,,,,5fbec16fce816f0d19f36f4c,5fe1928de6b281c3447853da,2020-12-22_06h30.53.883,FlowerSimilarity_Experiment,2020.1.2,Win32,60,5fe17d4a51f3a9c1a60f9869,,,,,,,,,,,,,,,,,,,8,FF,,6,3.134375,,,,,,,,,,,,,,,,,,,,,,,,,,,,,,,,,,119,66,1,0,0,response1disk,1,23,10,3,1,0,0,rectangle,10,3,1,0,0,,1,"[33,274,112,119,125,312,86,107,268,161,281,286,261,153,139,289,128,83,173,209]",10,3,1,0,0,0,22,22,20,1,,,,,,,,,,,,,,,,,,,,,,,
,,,,,,,,,,,,,,,,,,,,,,,,,,,,,,,,,,,,,,,,,,,5fbec16fce816f0d19f36f4c,5fe1928de6b281c3447853da,2020-12-22_06h30.53.883,FlowerSimilarity_Experiment,2020.1.2,Win32,60,5fe17d4a51f3a9c1a60f9869,,,,,,,,,,,,,,,,,,,2,PF,,5,2.716585,,,,,,,,,,,,,,,,,,,,,,,,,,,,,,,,,,81,-47,1,0,0,response3disk,1,24,-4,6,1,0,0,rectangle,-4,6,1,0,0,,1,"[33,274,112,119,125,312,86,107,268,161,281,286,261,153,139,289,128,83,173,209]",-4,6,1,0,0,0,23,23,9,1,,,,,,,,,,,,,,,,,,,,,,,
,,,,,,,,,,,,,,,,,,,,,,,,,,,,,,,,,,,,,,,,,,,5fbec16fce816f0d19f36f4c,5fe1928de6b281c3447853da,2020-12-22_06h30.53.883,FlowerSimilarity_Experiment,2020.1.2,Win32,60,5fe17d4a51f3a9c1a60f9869,,,,,,,,,,,,,,,,,,,5,FF,,5,3.50387,,,,,,,,,,,,,,,,,,,,,,,,,,,,,,,,,,76,-41,1,0,0,response3disk,4,25,5,3,1,0,0,rectangle,5,3,1,0,0,,0,"[33,274,112,119,125,312,86,107,268,161,281,286,261,153,139,289,128,83,173,209]",5,3,1,0,0,0,24,24,8,1,,,,,,,,,,,,,,,,,,,,,,,
,,,,,,,,,,,,,,,,,,,,,,,,,,,,,,,,,,,,,,,,,,,5fbec16fce816f0d19f36f4c,5fe1928de6b281c3447853da,2020-12-22_06h30.53.883,FlowerSimilarity_Experiment,2020.1.2,Win32,60,5fe17d4a51f3a9c1a60f9869,,,,,,,,,,,,,,,,,,,3,FF,,1,1.86052,,,,,,,,,,,,,,,,,,,,,,,,,,,,,,,,,,-56,29,1,0,0,response7disk,7,26,3,-3,1,0,0,rectangle,3,-3,1,0,0,,0,"[33,274,112,119,125,312,86,107,268,161,281,286,261,153,139,289,128,83,173,209]",3,-3,1,0,0,0,25,25,118,1,,,,,,,,,,,,,,,,,,,,,,,
,,,,,,,,,,,,,,,,,,,,,,,,,,,,,,,,,,,,,,,,,,,5fbec16fce816f0d19f36f4c,5fe1928de6b281c3447853da,2020-12-22_06h30.53.883,FlowerSimilarity_Experiment,2020.1.2,Win32,60,5fe17d4a51f3a9c1a60f9869,,,,,,,,,,,,,,,,,,,7,FF,,3,2.909825,,,,,,,,,,,,,,,,,,,,,,,,,,,,,,,,,,-33,-87,1,0,0,response5disk,2,27,-3,-5,1,0,0,rectangle,-3,-5,1,0,0,,5,"[33,274,112,119,125,312,86,107,268,161,281,286,261,153,139,289,128,83,173,209]",-3,-5,1,0,0,0,26,26,138,1,,,,,,,,,,,,,,,,,,,,,,,
,,,,,,,,,,,,,,,,,,,,,,,,,,,,,,,,,,,,,,,,,,,5fbec16fce816f0d19f36f4c,5fe1928de6b281c3447853da,2020-12-22_06h30.53.883,FlowerSimilarity_Experiment,2020.1.2,Win32,60,5fe17d4a51f3a9c1a60f9869,,,,,,,,,,,,,,,,,,,4,PF,,5,5.16404,,,,,,,,,,,,,,,,,,,,,,,,,,,,,,,,,,87,-30,1,0,0,response3disk,1,28,-9,12,1,0,0,rectangle,-9,12,1,0,0,,1,"[33,274,112,119,125,312,86,107,268,161,281,286,261,153,139,289,128,83,173,209]",-9,12,1,0,0,0,27,27,115,1,,,,,,,,,,,,,,,,,,,,,,,
,,,,,,,,,,,,,,,,,,,,,,,,,,,,,,,,,,,,,,,,,,,5fbec16fce816f0d19f36f4c,5fe1928de6b281c3447853da,2020-12-22_06h30.53.883,FlowerSimilarity_Experiment,2020.1.2,Win32,60,5fe17d4a51f3a9c1a60f9869,,,,,,,,,,,,,,,,,,,1,PF,,5,3.67086,,,,,,,,,,,,,,,,,,,,,,,,,,,,,,,,,,103,-23,1,0,0,response3disk,6,29,-14,2,1,0,0,rectangle,-14,2,1,0,0,,5,"[33,274,112,119,125,312,86,107,268,161,281,286,261,153,139,289,128,83,173,209]",-14,2,1,0,0,0,28,28,144,1,,,,,,,,,,,,,,,,,,,,,,,
,,,,,,,,,,,,,,,,,,,,,,,,,,,,,,,,,,,,,,,,,,,5fbec16fce816f0d19f36f4c,5fe1928de6b281c3447853da,2020-12-22_06h30.53.883,FlowerSimilarity_Experiment,2020.1.2,Win32,60,5fe17d4a51f3a9c1a60f9869,,,,,,,,,,,,,,,,,,,9,FF,,5,1.78722,,,,,,,,,,,,,,,,,,,,,,,,,,,,,,,,,,79,-52,1,0,0,response3disk,1,30,-2,-11,1,0,0,rectangle,-2,-11,1,0,0,,3,"[33,274,112,119,125,312,86,107,268,161,281,286,261,153,139,289,128,83,173,209]",-2,-11,1,0,0,0,29,29,111,1,,,,,,,,,,,,,,,,,,,,,,,
,,,,,,,,,,,,,,,,,,,,,,,,,,,,,,,,,,,,,,,,,,,5fbec16fce816f0d19f36f4c,5fe1928de6b281c3447853da,2020-12-22_06h30.53.883,FlowerSimilarity_Experiment,2020.1.2,Win32,60,5fe17d4a51f3a9c1a60f9869,,,,,,,,,,,,,,,,,,,7,FF,,1,2.481885,,,,,,,,,,,,,,,,,,,,,,,,,,,,,,,,,,-81,62,1,0,0,response7disk,3,31,-18,11,1,0,0,rectangle,-18,11,1,0,0,,6,"[33,274,112,119,125,312,86,107,268,161,281,286,261,153,139,289,128,83,173,209]",-18,11,1,0,0,0,30,30,73,1,,,,,,,,,,,,,,,,,,,,,,,
,,,,,,,,,,,,,,,,,,,,,,,,,,,,,,,,,,,,,,,,,,,5fbec16fce816f0d19f36f4c,5fe1928de6b281c3447853da,2020-12-22_06h30.53.883,FlowerSimilarity_Experiment,2020.1.2,Win32,60,5fe17d4a51f3a9c1a60f9869,,,,,,,,,,,,,,,,,,,3,FF,,5,2.78682,,,,,,,,,,,,,,,,,,,,,,,,,,,,,,,,,,96,-52,1,0,0,response3disk,9,32,-22,15,1,0,0,rectangle,-22,15,1,0,0,1,0,"[33,274,112,119,125,312,86,107,268,161,281,286,261,153,139,289,128,83,173,209]",-22,15,1,0,0,0,31,31,143,1,,,,,,,,,,,,,,,,,,,,,,,
,,,,,,,,,,,,,,,,,,,,,,,,,,,,,,,,,,,,,,,,,,,5fbec16fce816f0d19f36f4c,5fe1928de6b281c3447853da,2020-12-22_06h30.53.883,FlowerSimilarity_Experiment,2020.1.2,Win32,60,5fe17d4a51f3a9c1a60f9869,,,,,,,,,,,,,,,,,,,8,PF,,4,2.45721,,,,,,,,,,,,,,,,,,,,,,,,,,,,,,,,,,44,-86,1,0,0,response3disk,3,33,-1,4,1,0,0,rectangle,66,-83,1,0,0,4,4,"[33,274,112,119,125,312,86,107,268,161,281,286,261,153,139,289,128,83,173,209]",1,7,1,0,0,0,32,32,71,1,response3disk_3,rectangle,,,,,,,,,,,,,,,,,,,,,
,,,,,,,,,,,,,,,,,,,,,,,,,,,,,,,,,,,,,,,,,,,5fbec16fce816f0d19f36f4c,5fe1928de6b281c3447853da,2020-12-22_06h30.53.883,FlowerSimilarity_Experiment,2020.1.2,Win32,60,5fe17d4a51f3a9c1a60f9869,,,,,,,,,,,,,,,,,,,4,PF,,5,1.516715,,,,,,,,,,,,,,,,,,,,,,,,,,,,,,,,,,66,-42,1,0,0,response3disk,5,34,5,-3,1,0,0,rectangle,5,-3,1,0,0,4,6,"[33,274,112,119,125,312,86,107,268,161,281,286,261,153,139,289,128,83,173,209]",5,-3,1,0,0,0,33,33,49,1,,,,,,,,,,,,,,,,,,,,,,,
,,,,,,,,,,,,,,,,,,,,,,,,,,,,,,,,,,,,,,,,,,,5fbec16fce816f0d19f36f4c,5fe1928de6b281c3447853da,2020-12-22_06h30.53.883,FlowerSimilarity_Experiment,2020.1.2,Win32,60,5fe17d4a51f3a9c1a60f9869,,,,,,,,,,,,,,,,,,,8,FF,,3,1.65034,,,,,,,,,,,,,,,,,,,,,,,,,,,,,,,,,,-30,-80,1,0,0,response5disk,6,35,13,0,1,0,0,rectangle,13,0,1,0,0,4,1,"[33,274,112,119,125,312,86,107,268,161,281,286,261,153,139,289,128,83,173,209]",13,0,1,0,0,0,34,34,37,1,,,,,,,,,,,,,,,,,,,,,,,
,,,,,,,,,,,,,,,,,,,,,,,,,,,,,,,,,,,,,,,,,,,5fbec16fce816f0d19f36f4c,5fe1928de6b281c3447853da,2020-12-22_06h30.53.883,FlowerSimilarity_Experiment,2020.1.2,Win32,60,5fe17d4a51f3a9c1a60f9869,,,,,,,,,,,,,,,,,,,5,PF,,6,7.84779,,,,,,,,,,,,,,,,,,,,,,,,,,,,,,,,,,109,52,1,0,0,response1disk,4,36,13,5,1,0,0,rectangle,13,5,1,0,0,4,4,"[33,274,112,119,125,312,86,107,268,161,281,286,261,153,139,289,128,83,173,209]",13,5,1,0,0,0,35,35,54,1,,,,,,,,,,,,,,,,,,,,,,,
,,,,,,,,,,,,,,,,,,,,,,,,,,,,,,,,,,,,,,,,,,,5fbec16fce816f0d19f36f4c,5fe1928de6b281c3447853da,2020-12-22_06h30.53.883,FlowerSimilarity_Experiment,2020.1.2,Win32,60,5fe17d4a51f3a9c1a60f9869,,,,,,,,,,,,,,,,,,,1,FF,,3,2.933715,,,,,,,,,,,,,,,,,,,,,,,,,,,,,,,,,,-26,-88,1,0,0,response5disk,4,37,6,2,1,0,0,rectangle,6,2,1,0,0,4,0,"[33,274,112,119,125,312,86,107,268,161,281,286,261,153,139,289,128,83,173,209]",6,2,1,0,0,0,36,36,135,1,,,,,,,,,,,,,,,,,,,,,,,
,,,,,,,,,,,,,,,,,,,,,,,,,,,,,,,,,,,,,,,,,,,5fbec16fce816f0d19f36f4c,5fe1928de6b281c3447853da,2020-12-22_06h30.53.883,FlowerSimilarity_Experiment,2020.1.2,Win32,60,5fe17d4a51f3a9c1a60f9869,,,,,,,,,,,,,,,,,,,7,PF,,4,2.616825,,,,,,,,,,,,,,,,,,,,,,,,,,,,,,,,,,40,-66,1,0,0,response3disk,9,38,-7,6,1,0,0,rectangle,-7,6,1,0,0,4,0,"[33,274,112,119,125,312,86,107,268,161,281,286,261,153,139,289,128,83,173,209]",-7,6,1,0,0,0,37,37,10,1,,,,,,,,,,,,,,,,,,,,,,,
,,,,,,,,,,,,,,,,,,,,,,,,,,,,,,,,,,,,,,,,,,,5fbec16fce816f0d19f36f4c,5fe1928de6b281c3447853da,2020-12-22_06h30.53.883,FlowerSimilarity_Experiment,2020.1.2,Win32,60,5fe17d4a51f3a9c1a60f9869,,,,,,,,,,,,,,,,,,,4,FF,,4,2.10057,,,,,,,,,,,,,,,,,,,,,,,,,,,,,,,,,,48,-82,1,0,0,response3disk,5,39,10,-5,1,0,0,rectangle,10,-5,1,0,0,4,4,"[33,274,112,119,125,312,86,107,268,161,281,286,261,153,139,289,128,83,173,209]",10,-5,1,0,0,0,38,38,116,1,,,,,,,,,,,,,,,,,,,,,,,
,,,,,,,,,,,,,,,,,,,,,,,,,,,,,,,,,,,,,,,,,,,5fbec16fce816f0d19f36f4c,5fe1928de6b281c3447853da,2020-12-22_06h30.53.883,FlowerSimilarity_Experiment,2020.1.2,Win32,60,5fe17d4a51f3a9c1a60f9869,,,,,,,,,,,,,,,,,,,2,FF,,5,3.36706,,,,,,,,,,,,,,,,,,,,,,,,,,,,,,,,,,102,-30,1,0,0,response3disk,9,40,-5,5,1,0,0,rectangle,-5,5,1,0,0,4,0,"[33,274,112,119,125,312,86,107,268,161,281,286,261,153,139,289,128,83,173,209]",-5,5,1,0,0,0,39,39,72,1,,,,,,,,,,,,,,,,,,,,,,,
,,,,,,,,,,,,,,,,,,,,,,,,,,,,,,,,,,,,,,,,,,,5fbec16fce816f0d19f36f4c,5fe1928de6b281c3447853da,2020-12-22_06h30.53.883,FlowerSimilarity_Experiment,2020.1.2,Win32,60,5fe17d4a51f3a9c1a60f9869,,,,,,,,,,,,,,,,,,,5,PF,,1,1.83392,,,,,,,,,,,,,,,,,,,,,,,,,,,,,,,,,,-68,28,1,0,0,response7disk,5,41,0,0,1,0,0,rectangle,0,0,1,0,0,4,3,"[33,274,112,119,125,312,86,107,268,161,281,286,261,153,139,289,128,83,173,209]",0,0,1,0,0,0,40,40,94,1,,,,,,,,,,,,,,,,,,,,,,,
,,,,,,,,,,,,,,,,,,,,,,,,,,,,,,,,,,,,,,,,,,,5fbec16fce816f0d19f36f4c,5fe1928de6b281c3447853da,2020-12-22_06h30.53.883,FlowerSimilarity_Experiment,2020.1.2,Win32,60,5fe17d4a51f3a9c1a60f9869,,,,,,,,,,,,,,,,,,,8,FF,,3,1.66711,,,,,,,,,,,,,,,,,,,,,,,,,,,,,,,,,,-49,-72,1,0,0,response5disk,3,42,7,9,1,0,0,rectangle,7,9,1,0,0,4,3,"[33,274,112,119,125,312,86,107,268,161,281,286,261,153,139,289,128,83,173,209]",7,9,1,0,0,0,41,41,154,1,,,,,,,,,,,,,,,,,,,,,,,
,,,,,,,,,,,,,,,,,,,,,,,,,,,,,,,,,,,,,,,,,,,5fbec16fce816f0d19f36f4c,5fe1928de6b281c3447853da,2020-12-22_06h30.53.883,FlowerSimilarity_Experiment,2020.1.2,Win32,60,5fe17d4a51f3a9c1a60f9869,,,,,,,,,,,,,,,,,,,4,FF,,5,2.36751,,,,,,,,,,,,,,,,,,,,,,,,,,,,,,,,,,56,-34,1,0,0,response3disk,1,43,4,-9,1,0,0,rectangle,4,-9,1,0,0,4,6,"[33,274,112,119,125,312,86,107,268,161,281,286,261,153,139,289,128,83,173,209]",4,-9,1,0,0,0,42,42,102,1,,,,,,,,,,,,,,,,,,,,,,,
,,,,,,,,,,,,,,,,,,,,,,,,,,,,,,,,,,,,,,,,,,,5fbec16fce816f0d19f36f4c,5fe1928de6b281c3447853da,2020-12-22_06h30.53.883,FlowerSimilarity_Experiment,2020.1.2,Win32,60,5fe17d4a51f3a9c1a60f9869,,,,,,,,,,,,,,,,,,,6,PF,,5,1.619165,,,,,,,,,,,,,,,,,,,,,,,,,,,,,,,,,,114,-67,1,0,0,response3disk,4,44,2,-1,1,0,0,rectangle,2,-1,1,0,0,4,6,"[33,274,112,119,125,312,86,107,268,161,281,286,261,153,139,289,128,83,173,209]",2,-1,1,0,0,0,43,43,33,1,,,,,,,,,,,,,,,,,,,,,,,
,,,,,,,,,,,,,,,,,,,,,,,,,,,,,,,,,,,,,,,,,,,5fbec16fce816f0d19f36f4c,5fe1928de6b281c3447853da,2020-12-22_06h30.53.883,FlowerSimilarity_Experiment,2020.1.2,Win32,60,5fe17d4a51f3a9c1a60f9869,,,,,,,,,,,,,,,,,,,2,FF,,2,3.000435,,,,,,,,,,,,,,,,,,,,,,,,,,,,,,,,,,-99,-40,1,0,0,response5disk,7,45,8,6,1,0,0,rectangle,8,6,1,0,0,4,5,"[33,274,112,119,125,312,86,107,268,161,281,286,261,153,139,289,128,83,173,209]",8,6,1,0,0,0,44,44,63,1,,,,,,,,,,,,,,,,,,,,,,,
,,,,,,,,,,,,,,,,,,,,,,,,,,,,,,,,,,,,,,,,,,,5fbec16fce816f0d19f36f4c,5fe1928de6b281c3447853da,2020-12-22_06h30.53.883,FlowerSimilarity_Experiment,2020.1.2,Win32,60,5fe17d4a51f3a9c1a60f9869,,,,,,,,,,,,,,,,,,,8,PF,,3,2.58673,,,,,,,,,,,,,,,,,,,,,,,,,,,,,,,,,,-21,-86,1,0,0,response5disk,2,46,-5,-12,1,0,0,rectangle,-5,-12,1,0,0,4,2,"[33,274,112,119,125,312,86,107,268,161,281,286,261,153,139,289,128,83,173,209]",-5,-12,1,0,0,0,45,45,83,1,,,,,,,,,,,,,,,,,,,,,,,
,,,,,,,,,,,,,,,,,,,,,,,,,,,,,,,,,,,,,,,,,,,5fbec16fce816f0d19f36f4c,5fe1928de6b281c3447853da,2020-12-22_06h30.53.883,FlowerSimilarity_Experiment,2020.1.2,Win32,60,5fe17d4a51f3a9c1a60f9869,,,,,,,,,,,,,,,,,,,8,FF,,0,2.121475,,,,,,,,,,,,,,,,,,,,,,,,,,,,,,,,,,-64,65,1,0,0,response7disk,5,47,0,0,1,0,0,rectangle,0,0,1,0,0,4,5,"[33,274,112,119,125,312,86,107,268,161,281,286,261,153,139,289,128,83,173,209]",0,0,1,0,0,0,46,46,152,1,,,,,,,,,,,,,,,,,,,,,,,
,,,,,,,,,,,,,,,,,,,,,,,,,,,,,,,,,,,,,,,,,,,5fbec16fce816f0d19f36f4c,5fe1928de6b281c3447853da,2020-12-22_06h30.53.883,FlowerSimilarity_Experiment,2020.1.2,Win32,60,5fe17d4a51f3a9c1a60f9869,,,,,,,,,,,,,,,,,,,7,PF,,1,1.936075,,,,,,,,,,,,,,,,,,,,,,,,,,,,,,,,,,-80,51,1,0,0,response7disk,7,48,4,-2,1,0,0,rectangle,4,-2,1,0,0,4,7,"[33,274,112,119,125,312,86,107,268,161,281,286,261,153,139,289,128,83,173,209]",4,-2,1,0,0,0,47,47,51,1,,,,,,,,,,,,,,,,,,,,,,,
,,,,,,,,,,,,,,,,,,,,,,,,,,,,,,,,,,,,,,,,,,,5fbec16fce816f0d19f36f4c,5fe1928de6b281c3447853da,2020-12-22_06h30.53.883,FlowerSimilarity_Experiment,2020.1.2,Win32,60,5fe17d4a51f3a9c1a60f9869,,,,,,,,,,,,,,,,,,,4,PF,,5,1.85562,,,,,,,,,,,,,,,,,,,,,,,,,,,,,,,,,,77,-57,1,0,0,response3disk,9,49,5,-11,1,0,0,rectangle,5,-11,1,0,0,4,3,"[33,274,112,119,125,312,86,107,268,161,281,286,261,153,139,289,128,83,173,209]",5,-11,1,0,0,0,48,48,75,1,,,,,,,,,,,,,,,,,,,,,,,
,,,,,,,,,,,,,,,,,,,,,,,,,,,,,,,,,,,,,,,,,,,5fbec16fce816f0d19f36f4c,5fe1928de6b281c3447853da,2020-12-22_06h30.53.883,FlowerSimilarity_Experiment,2020.1.2,Win32,60,5fe17d4a51f3a9c1a60f9869,,,,,,,,,,,,,,,,,,,5,PF,,6,1.738295,,,,,,,,,,,,,,,,,,,,,,,,,,,,,,,,,,77,36,1,0,0,response1disk,6,50,17,10,1,0,0,rectangle,17,10,1,0,0,4,1,"[33,274,112,119,125,312,86,107,268,161,281,286,261,153,139,289,128,83,173,209]",17,10,1,0,0,0,49,49,103,1,,,,,,,,,,,,,,,,,,,,,,,
,,,,,,,,,,,,,,,,,,,,,,,,,,,,,,,,,,,,,,,,,,,5fbec16fce816f0d19f36f4c,5fe1928de6b281c3447853da,2020-12-22_06h30.53.883,FlowerSimilarity_Experiment,2020.1.2,Win32,60,5fe17d4a51f3a9c1a60f9869,,,,,,,,,,,,,,,,,,,9,PF,,5,1.400385,,,,,,,,,,,,,,,,,,,,,,,,,,,,,,,,,,106,-45,1,0,0,response3disk,3,51,-1,-1,1,0,0,rectangle,-1,-1,1,0,0,4,2,"[33,274,112,119,125,312,86,107,268,161,281,286,261,153,139,289,128,83,173,209]",-1,-1,1,0,0,0,50,50,119,1,,,,,,,,,,,,,,,,,,,,,,,
,,,,,,,,,,,,,,,,,,,,,,,,,,,,,,,,,,,,,,,,,,,5fbec16fce816f0d19f36f4c,5fe1928de6b281c3447853da,2020-12-22_06h30.53.883,FlowerSimilarity_Experiment,2020.1.2,Win32,60,5fe17d4a51f3a9c1a60f9869,,,,,,,,,,,,,,,,,,,1,PF,,6,1.81661,,,,,,,,,,,,,,,,,,,,,,,,,,,,,,,,,,85,40,1,0,0,response1disk,5,52,-4,-3,1,0,0,rectangle,-4,-3,1,0,0,4,6,"[33,274,112,119,125,312,86,107,268,161,281,286,261,153,139,289,128,83,173,209]",-4,-3,1,0,0,0,51,51,28,1,,,,,,,,,,,,,,,,,,,,,,,
,,,,,,,,,,,,,,,,,,,,,,,,,,,,,,,,,,,,,,,,,,,5fbec16fce816f0d19f36f4c,5fe1928de6b281c3447853da,2020-12-22_06h30.53.883,FlowerSimilarity_Experiment,2020.1.2,Win32,60,5fe17d4a51f3a9c1a60f9869,,,,,,,,,,,,,,,,,,,5,PF,,3,2.134805,,,,,,,,,,,,,,,,,,,,,,,,,,,,,,,,,,-20,-71,1,0,0,response5disk,7,53,-2,0,1,0,0,rectangle,-2,0,1,0,0,4,4,"[33,274,112,119,125,312,86,107,268,161,281,286,261,153,139,289,128,83,173,209]",-2,0,1,0,0,0,52,52,146,1,,,,,,,,,,,,,,,,,,,,,,,
,,,,,,,,,,,,,,,,,,,,,,,,,,,,,,,,,,,,,,,,,,,5fbec16fce816f0d19f36f4c,5fe1928de6b281c3447853da,2020-12-22_06h30.53.883,FlowerSimilarity_Experiment,2020.1.2,Win32,60,5fe17d4a51f3a9c1a60f9869,,,,,,,,,,,,,,,,,,,4,FF,,7,2.01779,,,,,,,,,,,,,,,,,,,,,,,,,,,,,,,,,,49,79,1,0,0,response1disk,8,54,-13,-3,1,0,0,rectangle,-13,-3,1,0,0,4,4,"[33,274,112,119,125,312,86,107,268,161,281,286,261,153,139,289,128,83,173,209]",-13,-3,1,0,0,0,53,53,35,1,,,,,,,,,,,,,,,,,,,,,,,
,,,,,,,,,,,,,,,,,,,,,,,,,,,,,,,,,,,,,,,,,,,5fbec16fce816f0d19f36f4c,5fe1928de6b281c3447853da,2020-12-22_06h30.53.883,FlowerSimilarity_Experiment,2020.1.2,Win32,60,5fe17d4a51f3a9c1a60f9869,,,,,,,,,,,,,,,,,,,2,FF,,7,1.18727,,,,,,,,,,,,,,,,,,,,,,,,,,,,,,,,,,44,65,1,0,0,response1disk,1,55,8,5,1,0,0,rectangle,8,5,1,0,0,4,6,"[33,274,112,119,125,312,86,107,268,161,281,286,261,153,139,289,128,83,173,209]",8,5,1,0,0,0,54,54,85,1,,,,,,,,,,,,,,,,,,,,,,,
,,,,,,,,,,,,,,,,,,,,,,,,,,,,,,,,,,,,,,,,,,,5fbec16fce816f0d19f36f4c,5fe1928de6b281c3447853da,2020-12-22_06h30.53.883,FlowerSimilarity_Experiment,2020.1.2,Win32,60,5fe17d4a51f3a9c1a60f9869,,,,,,,,,,,,,,,,,,,1,FF,,0,1.96567,,,,,,,,,,,,,,,,,,,,,,,,,,,,,,,,,,-49,71,1,0,0,response7disk,1,56,-2,-9,1,0,0,rectangle,-2,-9,1,0,0,4,1,"[33,274,112,119,125,312,86,107,268,161,281,286,261,153,139,289,128,83,173,209]",-2,-9,1,0,0,0,55,55,151,1,,,,,,,,,,,,,,,,,,,,,,,
,,,,,,,,,,,,,,,,,,,,,,,,,,,,,,,,,,,,,,,,,,,5fbec16fce816f0d19f36f4c,5fe1928de6b281c3447853da,2020-12-22_06h30.53.883,FlowerSimilarity_Experiment,2020.1.2,Win32,60,5fe17d4a51f3a9c1a60f9869,,,,,,,,,,,,,,,,,,,1,PF,,3,2.48893,,,,,,,,,,,,,,,,,,,,,,,,,,,,,,,,,,-33,-73,1,0,0,response5disk,3,57,9,10,1,0,0,rectangle,9,10,1,0,0,4,7,"[33,274,112,119,125,312,86,107,268,161,281,286,261,153,139,289,128,83,173,209]",9,10,1,0,0,0,56,56,1,1,,,,,,,,,,,,,,,,,,,,,,,
,,,,,,,,,,,,,,,,,,,,,,,,,,,,,,,,,,,,,,,,,,,5fbec16fce816f0d19f36f4c,5fe1928de6b281c3447853da,2020-12-22_06h30.53.883,FlowerSimilarity_Experiment,2020.1.2,Win32,60,5fe17d4a51f3a9c1a60f9869,,,,,,,,,,,,,,,,,,,2,FF,,1,1.436105,,,,,,,,,,,,,,,,,,,,,,,,,,,,,,,,,,-88,30,1,0,0,response7disk,3,58,-6,2,1,0,0,rectangle,-6,2,1,0,0,4,2,"[33,274,112,119,125,312,86,107,268,161,281,286,261,153,139,289,128,83,173,209]",-6,2,1,0,0,0,57,57,104,1,,,,,,,,,,,,,,,,,,,,,,,
,,,,,,,,,,,,,,,,,,,,,,,,,,,,,,,,,,,,,,,,,,,5fbec16fce816f0d19f36f4c,5fe1928de6b281c3447853da,2020-12-22_06h30.53.883,FlowerSimilarity_Experiment,2020.1.2,Win32,60,5fe17d4a51f3a9c1a60f9869,,,,,,,,,,,,,,,,,,,6,PF,,5,1.95451,,,,,,,,,,,,,,,,,,,,,,,,,,,,,,,,,,42,-28,1,0,0,response3disk,8,59,-3,8,1,0,0,rectangle,-3,8,1,0,0,4,2,"[33,274,112,119,125,312,86,107,268,161,281,286,261,153,139,289,128,83,173,209]",-3,8,1,0,0,0,58,58,64,1,,,,,,,,,,,,,,,,,,,,,,,
,,,,,,,,,,,,,,,,,,,,,,,,,,,,,,,,,,,,,,,,,,,5fbec16fce816f0d19f36f4c,5fe1928de6b281c3447853da,2020-12-22_06h30.53.883,FlowerSimilarity_Experiment,2020.1.2,Win32,60,5fe17d4a51f3a9c1a60f9869,,,,,,,,,,,,,,,,,,,6,PF,,4,1.9141,,,,,,,,,,,,,,,,,,,,,,,,,,,,,,,,,,25,-65,1,0,0,response3disk,2,60,-2,-2,1,0,0,rectangle,-2,-2,1,0,0,4,2,"[33,274,112,119,125,312,86,107,268,161,281,286,261,153,139,289,128,83,173,209]",-2,-2,1,0,0,0,59,59,130,1,,,,,,,,,,,,,,,,,,,,,,,
,,,,,,,,,,,,,,,,,,,,,,,,,,,,,,,,,,,,,,,,,,,5fbec16fce816f0d19f36f4c,5fe1928de6b281c3447853da,2020-12-22_06h30.53.883,FlowerSimilarity_Experiment,2020.1.2,Win32,60,5fe17d4a51f3a9c1a60f9869,,,,,,,,,,,,,,,,,,,1,PF,,4,1.28545,,,,,,,,,,,,,,,,,,,,,,,,,,,,,,,,,,38,-59,1,0,0,response3disk,8,61,9,-13,1,0,0,rectangle,9,-13,1,0,0,4,4,"[33,274,112,119,125,312,86,107,268,161,281,286,261,153,139,289,128,83,173,209]",9,-13,1,0,0,0,60,60,65,1,,,,,,,,,,,,,,,,,,,,,,,
,,,,,,,,,,,,,,,,,,,,,,,,,,,,,,,,,,,,,,,,,,,5fbec16fce816f0d19f36f4c,5fe1928de6b281c3447853da,2020-12-22_06h30.53.883,FlowerSimilarity_Experiment,2020.1.2,Win32,60,5fe17d4a51f3a9c1a60f9869,,,,,,,,,,,,,,,,,,,2,PF,,1,2.265005,,,,,,,,,,,,,,,,,,,,,,,,,,,,,,,,,,-65,40,1,0,0,response7disk,2,62,-3,4,1,0,0,rectangle,-3,4,1,0,0,4,6,"[33,274,112,119,125,312,86,107,268,161,281,286,261,153,139,289,128,83,173,209]",-3,4,1,0,0,0,61,61,14,1,,,,,,,,,,,,,,,,,,,,,,,
,,,,,,,,,,,,,,,,,,,,,,,,,,,,,,,,,,,,,,,,,,,5fbec16fce816f0d19f36f4c,5fe1928de6b281c3447853da,2020-12-22_06h30.53.883,FlowerSimilarity_Experiment,2020.1.2,Win32,60,5fe17d4a51f3a9c1a60f9869,,,,,,,,,,,,,,,,,,,9,PF,,3,2.60196,,,,,,,,,,,,,,,,,,,,,,,,,,,,,,,,,,-26,-63,1,0,0,response5disk,2,63,1,-4,1,0,0,rectangle,1,-4,1,0,0,4,6,"[33,274,112,119,125,312,86,107,268,161,281,286,261,153,139,289,128,83,173,209]",1,-4,1,0,0,0,62,62,157,1,,,,,,,,,,,,,,,,,,,,,,,
,,,,,,,,,,,,,,,,,,,,,,,,,,,,,,,,,,,,,,,,,,,5fbec16fce816f0d19f36f4c,5fe1928de6b281c3447853da,2020-12-22_06h30.53.883,FlowerSimilarity_Experiment,2020.1.2,Win32,60,5fe17d4a51f3a9c1a60f9869,,,,,,,,,,,,,,,,,,,8,PF,,3,3.533745,,,,,,,,,,,,,,,,,,,,,,,,,,,,,,,,,,-21,-95,1,0,0,response5disk,7,64,-3,-10,1,0,0,rectangle,-3,-10,1,0,0,4,0,"[33,274,112,119,125,312,86,107,268,161,281,286,261,153,139,289,128,83,173,209]",-3,-10,1,0,0,0,63,63,23,1,,,,,,,,,,,,,,,,,,,,,,,
,,,,,,,,,,,,,,,,,,,,,,,,,,,,,,,,,,,,,,,,,,,5fbec16fce816f0d19f36f4c,5fe1928de6b281c3447853da,2020-12-22_06h30.53.883,FlowerSimilarity_Experiment,2020.1.2,Win32,60,5fe17d4a51f3a9c1a60f9869,,,,,,,,,,,,,,,,,,,8,PF,,1,1.483675,,,,,,,,,,,,,,,,,,,,,,,,,,,,,,,,,,-65,33,1,0,0,response7disk,5,65,11,-4,1,0,0,rectangle,11,-4,1,0,0,4,7,"[33,274,112,119,125,312,86,107,268,161,281,286,261,153,139,289,128,83,173,209]",11,-4,1,0,0,0,64,64,98,1,,,,,,,,,,,,,,,,,,,,,,,
,,,,,,,,,,,,,,,,,,,,,,,,,,,,,,,,,,,,,,,,,,,5fbec16fce816f0d19f36f4c,5fe1928de6b281c3447853da,2020-12-22_06h30.53.883,FlowerSimilarity_Experiment,2020.1.2,Win32,60,5fe17d4a51f3a9c1a60f9869,,,,,,,,,,,,,,,,,,,9,FF,,2,2.1004,,,,,,,,,,,,,,,,,,,,,,,,,,,,,,,,,,-80,-28,1,0,0,response5disk,2,66,-13,-1,1,0,0,rectangle,-13,-1,1,0,0,4,0,"[33,274,112,119,125,312,86,107,268,161,281,286,261,153,139,289,128,83,173,209]",-13,-1,1,0,0,0,65,65,11,1,,,,,,,,,,,,,,,,,,,,,,,
,,,,,,,,,,,,,,,,,,,,,,,,,,,,,,,,,,,,,,,,,,,5fbec16fce816f0d19f36f4c,5fe1928de6b281c3447853da,2020-12-22_06h30.53.883,FlowerSimilarity_Experiment,2020.1.2,Win32,60,5fe17d4a51f3a9c1a60f9869,,,,,,,,,,,,,,,,,,,9,PF,,1,1.766375,,,,,,,,,,,,,,,,,,,,,,,,,,,,,,,,,,-82,34,1,0,0,response7disk,4,67,1,2,1,0,0,rectangle,1,2,1,0,0,4,7,"[33,274,112,119,125,312,86,107,268,161,281,286,261,153,139,289,128,83,173,209]",1,2,1,0,0,0,66,66,114,1,,,,,,,,,,,,,,,,,,,,,,,
,,,,,,,,,,,,,,,,,,,,,,,,,,,,,,,,,,,,,,,,,,,5fbec16fce816f0d19f36f4c,5fe1928de6b281c3447853da,2020-12-22_06h30.53.883,FlowerSimilarity_Experiment,2020.1.2,Win32,60,5fe17d4a51f3a9c1a60f9869,,,,,,,,,,,,,,,,,,,7,PF,,1,2.12103,,,,,,,,,,,,,,,,,,,,,,,,,,,,,,,,,,-88,28,1,0,0,response7disk,4,68,-16,-1,1,0,0,rectangle,-16,-1,1,0,0,4,7,"[33,274,112,119,125,312,86,107,268,161,281,286,261,153,139,289,128,83,173,209]",-16,-1,1,0,0,0,67,67,43,1,,,,,,,,,,,,,,,,,,,,,,,
,,,,,,,,,,,,,,,,,,,,,,,,,,,,,,,,,,,,,,,,,,,5fbec16fce816f0d19f36f4c,5fe1928de6b281c3447853da,2020-12-22_06h30.53.883,FlowerSimilarity_Experiment,2020.1.2,Win32,60,5fe17d4a51f3a9c1a60f9869,,,,,,,,,,,,,,,,,,,8,FF,,2,11.567375,,,,,,,,,,,,,,,,,,,,,,,,,,,,,,,,,,-85,-22,1,0,0,response5disk,2,69,9,-9,1,0,0,rectangle,9,-9,1,0,0,4,0,"[33,274,112,119,125,312,86,107,268,161,281,286,261,153,139,289,128,83,173,209]",9,-9,1,0,0,0,68,68,22,1,,,,,,,,,,,,,,,,,,,,,,,
,,,,,,,,,,,,,,,,,,,,,,,,,,,,,,,,,,,,,,,,,,,5fbec16fce816f0d19f36f4c,5fe1928de6b281c3447853da,2020-12-22_06h30.53.883,FlowerSimilarity_Experiment,2020.1.2,Win32,60,5fe17d4a51f3a9c1a60f9869,,,,,,,,,,,,,,,,,,,9,FF,,4,2.11748,,,,,,,,,,,,,,,,,,,,,,,,,,,,,,,,,,17,-89,1,0,0,response3disk,7,70,-2,12,1,0,0,rectangle,-2,12,1,0,0,4,1,"[33,274,112,119,125,312,86,107,268,161,281,286,261,153,139,289,128,83,173,209]",-2,12,1,0,0,0,69,69,100,1,,,,,,,,,,,,,,,,,,,,,,,
,,,,,,,,,,,,,,,,,,,,,,,,,,,,,,,,,,,,,,,,,,,5fbec16fce816f0d19f36f4c,5fe1928de6b281c3447853da,2020-12-22_06h30.53.883,FlowerSimilarity_Experiment,2020.1.2,Win32,60,5fe17d4a51f3a9c1a60f9869,,,,,,,,,,,,,,,,,,,2,FF,,0,1.46683,,,,,,,,,,,,,,,,,,,,,,,,,,,,,,,,,,-54,86,1,0,0,response7disk,2,71,-5,11,1,0,0,rectangle,-5,11,1,0,0,4,7,"[33,274,112,119,125,312,86,107,268,161,281,286,261,153,139,289,128,83,173,209]",-5,11,1,0,0,0,70,70,142,1,,,,,,,,,,,,,,,,,,,,,,,
,,,,,,,,,,,,,,,,,,,,,,,,,,,,,,,,,,,,,,,,,,,5fbec16fce816f0d19f36f4c,5fe1928de6b281c3447853da,2020-12-22_06h30.53.883,FlowerSimilarity_Experiment,2020.1.2,Win32,60,5fe17d4a51f3a9c1a60f9869,,,,,,,,,,,,,,,,,,,2,PF,,6,2.033735,,,,,,,,,,,,,,,,,,,,,,,,,,,,,,,,,,100,50,1,0,0,response1disk,6,72,-2,1,1,0,0,rectangle,-2,1,1,0,0,4,3,"[33,274,112,119,125,312,86,107,268,161,281,286,261,153,139,289,128,83,173,209]",-2,1,1,0,0,0,71,71,113,1,,,,,,,,,,,,,,,,,,,,,,,
,,,,,,,,,,,,,,,,,,,,,,,,,,,,,,,,,,,,,,,,,,,5fbec16fce816f0d19f36f4c,5fe1928de6b281c3447853da,2020-12-22_06h30.53.883,FlowerSimilarity_Experiment,2020.1.2,Win32,60,5fe17d4a51f3a9c1a60f9869,,,,,,,,,,,,,,,,,,,6,FF,,0,1.170265,,,,,,,,,,,,,,,,,,,,,,,,,,,,,,,,,,-46,106,1,0,0,response7disk,6,73,4,4,1,0,0,rectangle,4,4,1,0,0,4,3,"[33,274,112,119,125,312,86,107,268,161,281,286,261,153,139,289,128,83,173,209]",4,4,1,0,0,0,72,72,91,1,,,,,,,,,,,,,,,,,,,,,,,
,,,,,,,,,,,,,,,,,,,,,,,,,,,,,,,,,,,,,,,,,,,5fbec16fce816f0d19f36f4c,5fe1928de6b281c3447853da,2020-12-22_06h30.53.883,FlowerSimilarity_Experiment,2020.1.2,Win32,60,5fe17d4a51f3a9c1a60f9869,,,,,,,,,,,,,,,,,,,6,FF,,6,3.514855,,,,,,,,,,,,,,,,,,,,,,,,,,,,,,,,,,105,40,1,0,0,response1disk,4,74,-13,4,1,0,0,rectangle,-13,4,1,0,0,4,1,"[33,274,112,119,125,312,86,107,268,161,281,286,261,153,139,289,128,83,173,209]",-13,4,1,0,0,0,73,73,56,1,,,,,,,,,,,,,,,,,,,,,,,
,,,,,,,,,,,,,,,,,,,,,,,,,,,,,,,,,,,,,,,,,,,5fbec16fce816f0d19f36f4c,5fe1928de6b281c3447853da,2020-12-22_06h30.53.883,FlowerSimilarity_Experiment,2020.1.2,Win32,60,5fe17d4a51f3a9c1a60f9869,,,,,,,,,,,,,,,,,,,6,PF,,5,1.68461,,,,,,,,,,,,,,,,,,,,,,,,,,,,,,,,,,75,-49,1,0,0,response3disk,5,75,-1,-3,1,0,0,rectangle,-1,-3,1,0,0,4,3,"[33,274,112,119,125,312,86,107,268,161,281,286,261,153,139,289,128,83,173,209]",-1,-3,1,0,0,0,74,74,59,1,,,,,,,,,,,,,,,,,,,,,,,
,,,,,,,,,,,,,,,,,,,,,,,,,,,,,,,,,,,,,,,,,,,5fbec16fce816f0d19f36f4c,5fe1928de6b281c3447853da,2020-12-22_06h30.53.883,FlowerSimilarity_Experiment,2020.1.2,Win32,60,5fe17d4a51f3a9c1a60f9869,,,,,,,,,,,,,,,,,,,4,FF,,1,1.489245,,,,,,,,,,,,,,,,,,,,,,,,,,,,,,,,,,-85,29,1,0,0,response7disk,3,76,-15,-4,1,0,0,rectangle,-15,-4,1,0,0,4,1,"[33,274,112,119,125,312,86,107,268,161,281,286,261,153,139,289,128,83,173,209]",-15,-4,1,0,0,0,75,75,77,1,,,,,,,,,,,,,,,,,,,,,,,
,,,,,,,,,,,,,,,,,,,,,,,,,,,,,,,,,,,,,,,,,,,5fbec16fce816f0d19f36f4c,5fe1928de6b281c3447853da,2020-12-22_06h30.53.883,FlowerSimilarity_Experiment,2020.1.2,Win32,60,5fe17d4a51f3a9c1a60f9869,,,,,,,,,,,,,,,,,,,4,FF,,1,1.45647,,,,,,,,,,,,,,,,,,,,,,,,,,,,,,,,,,-85,73,1,0,0,response7disk,7,77,11,4,1,0,0,rectangle,11,4,1,0,0,4,2,"[33,274,112,119,125,312,86,107,268,161,281,286,261,153,139,289,128,83,173,209]",11,4,1,0,0,0,76,76,87,1,,,,,,,,,,,,,,,,,,,,,,,
,,,,,,,,,,,,,,,,,,,,,,,,,,,,,,,,,,,,,,,,,,,5fbec16fce816f0d19f36f4c,5fe1928de6b281c3447853da,2020-12-22_06h30.53.883,FlowerSimilarity_Experiment,2020.1.2,Win32,60,5fe17d4a51f3a9c1a60f9869,,,,,,,,,,,,,,,,,,,4,PF,,1,1.5347,,,,,,,,,,,,,,,,,,,,,,,,,,,,,,,,,,-75,49,1,0,0,response7disk,2,78,-3,6,1,0,0,rectangle,-3,6,1,0,0,4,2,"[33,274,112,119,125,312,86,107,268,161,281,286,261,153,139,289,128,83,173,209]",-3,6,1,0,0,0,77,77,108,1,,,,,,,,,,,,,,,,,,,,,,,
,,,,,,,,,,,,,,,,,,,,,,,,,,,,,,,,,,,,,,,,,,,5fbec16fce816f0d19f36f4c,5fe1928de6b281c3447853da,2020-12-22_06h30.53.883,FlowerSimilarity_Experiment,2020.1.2,Win32,60,5fe17d4a51f3a9c1a60f9869,,,,,,,,,,,,,,,,,,,6,PF,,0,1.98692,,,,,,,,,,,,,,,,,,,,,,,,,,,,,,,,,,-58,85,1,0,0,response7disk,9,79,0,10,1,0,0,rectangle,0,10,1,0,0,4,4,"[33,274,112,119,125,312,86,107,268,161,281,286,261,153,139,289,128,83,173,209]",0,10,1,0,0,0,78,78,45,1,,,,,,,,,,,,,,,,,,,,,,,
,,,,,,,,,,,,,,,,,,,,,,,,,,,,,,,,,,,,,,,,,,,5fbec16fce816f0d19f36f4c,5fe1928de6b281c3447853da,2020-12-22_06h30.53.883,FlowerSimilarity_Experiment,2020.1.2,Win32,60,5fe17d4a51f3a9c1a60f9869,,,,,,,,,,,,,,,,,,,5,FF,,5,1.751185,,,,,,,,,,,,,,,,,,,,,,,,,,,,,,,,,,85,-49,1,0,0,response3disk,9,80,-5,-1,1,0,0,rectangle,-5,-1,1,0,0,4,3,"[33,274,112,119,125,312,86,107,268,161,281,286,261,153,139,289,128,83,173,209]",-5,-1,1,0,0,0,79,79,61,1,,,,,,,,,,,,,,,,,,,,,,,
,,,,,,,,,,,,,,,,,,,,,,,,,,,,,,,,,,,,,,,,,,,5fbec16fce816f0d19f36f4c,5fe1928de6b281c3447853da,2020-12-22_06h30.53.883,FlowerSimilarity_Experiment,2020.1.2,Win32,60,5fe17d4a51f3a9c1a60f9869,,,,,,,,,,,,,,,,,,,3,FF,,2,2.086755,,,,,,,,,,,,,,,,,,,,,,,,,,,,,,,,,,-86,-32,1,0,0,response5disk,2,81,5,6,1,0,0,rectangle,5,6,1,0,0,4,5,"[33,274,112,119,125,312,86,107,268,161,281,286,261,153,139,289,128,83,173,209]",5,6,1,0,0,0,80,80,93,1,,,,,,,,,,,,,,,,,,,,,,,
,,,,,,,,,,,,,,,,,,,,,,,,,,,,,,,,,,,,,,,,,,,5fbec16fce816f0d19f36f4c,5fe1928de6b281c3447853da,2020-12-22_06h30.53.883,FlowerSimilarity_Experiment,2020.1.2,Win32,60,5fe17d4a51f3a9c1a60f9869,,,,,,,,,,,,,,,,,,,7,PF,,6,1.807195,,,,,,,,,,,,,,,,,,,,,,,,,,,,,,,,,,76,38,1,0,0,response1disk,5,82,-5,-8,1,0,0,rectangle,-5,-8,1,0,0,4,0,"[33,274,112,119,125,312,86,107,268,161,281,286,261,153,139,289,128,83,173,209]",-5,-8,1,0,0,0,81,81,92,1,,,,,,,,,,,,,,,,,,,,,,,
,,,,,,,,,,,,,,,,,,,,,,,,,,,,,,,,,,,,,,,,,,,5fbec16fce816f0d19f36f4c,5fe1928de6b281c3447853da,2020-12-22_06h30.53.883,FlowerSimilarity_Experiment,2020.1.2,Win32,60,5fe17d4a51f3a9c1a60f9869,,,,,,,,,,,,,,,,,,,3,PF,,6,1.98519,,,,,,,,,,,,,,,,,,,,,,,,,,,,,,,,,,88,44,1,0,0,response1disk,6,83,9,7,1,0,0,rectangle,106,40,1,0,0,6,6,"[33,274,112,119,125,312,86,107,268,161,281,286,261,153,139,289,128,83,173,209]",-9,-13,1,0,0,0,82,82,47,1,response1disk_3,rectangle,,,,,,,,,,,,,,,,,,,,,
,,,,,,,,,,,,,,,,,,,,,,,,,,,,,,,,,,,,,,,,,,,5fbec16fce816f0d19f36f4c,5fe1928de6b281c3447853da,2020-12-22_06h30.53.883,FlowerSimilarity_Experiment,2020.1.2,Win32,60,5fe17d4a51f3a9c1a60f9869,,,,,,,,,,,,,,,,,,,9,PF,,0,1.366455,,,,,,,,,,,,,,,,,,,,,,,,,,,,,,,,,,-30,59,1,0,0,response7disk,9,84,8,11,1,0,0,rectangle,8,11,1,0,0,6,5,"[33,274,112,119,125,312,86,107,268,161,281,286,261,153,139,289,128,83,173,209]",8,11,1,0,0,0,83,83,106,1,,,,,,,,,,,,,,,,,,,,,,,
,,,,,,,,,,,,,,,,,,,,,,,,,,,,,,,,,,,,,,,,,,,5fbec16fce816f0d19f36f4c,5fe1928de6b281c3447853da,2020-12-22_06h30.53.883,FlowerSimilarity_Experiment,2020.1.2,Win32,60,5fe17d4a51f3a9c1a60f9869,,,,,,,,,,,,,,,,,,,9,PF,,5,1.48092,,,,,,,,,,,,,,,,,,,,,,,,,,,,,,,,,,66,-29,1,0,0,response3disk,5,85,-17,12,1,0,0,rectangle,-17,12,1,0,0,6,5,"[33,274,112,119,125,312,86,107,268,161,281,286,261,153,139,289,128,83,173,209]",-17,12,1,0,0,0,84,84,134,1,,,,,,,,,,,,,,,,,,,,,,,
,,,,,,,,,,,,,,,,,,,,,,,,,,,,,,,,,,,,,,,,,,,5fbec16fce816f0d19f36f4c,5fe1928de6b281c3447853da,2020-12-22_06h30.53.883,FlowerSimilarity_Experiment,2020.1.2,Win32,60,5fe17d4a51f3a9c1a60f9869,,,,,,,,,,,,,,,,,,,2,PF,,5,0.901505,,,,,,,,,,,,,,,,,,,,,,,,,,,,,,,,,,118,-82,1,0,0,response3disk,8,86,3,-3,1,0,0,rectangle,92,-38,1,0,0,5,5,"[33,274,112,119,125,312,86,107,268,161,281,286,261,153,139,289,128,83,173,209]",8,1,1,0,0,0,85,85,52,1,response3disk_3,rectangle,,,,,,,,,,,,,,,,,,,,,
,,,,,,,,,,,,,,,,,,,,,,,,,,,,,,,,,,,,,,,,,,,5fbec16fce816f0d19f36f4c,5fe1928de6b281c3447853da,2020-12-22_06h30.53.883,FlowerSimilarity_Experiment,2020.1.2,Win32,60,5fe17d4a51f3a9c1a60f9869,,,,,,,,,,,,,,,,,,,4,PF,,7,1.62166,,,,,,,,,,,,,,,,,,,,,,,,,,,,,,,,,,35,97,1,0,0,response1disk,8,87,0,8,1,0,0,rectangle,0,8,1,0,0,5,7,"[33,274,112,119,125,312,86,107,268,161,281,286,261,153,139,289,128,83,173,209]",0,8,1,0,0,0,86,86,124,1,,,,,,,,,,,,,,,,,,,,,,,
,,,,,,,,,,,,,,,,,,,,,,,,,,,,,,,,,,,,,,,,,,,5fbec16fce816f0d19f36f4c,5fe1928de6b281c3447853da,2020-12-22_06h30.53.883,FlowerSimilarity_Experiment,2020.1.2,Win32,60,5fe17d4a51f3a9c1a60f9869,,,,,,,,,,,,,,,,,,,3,FF,,4,2.182145,,,,,,,,,,,,,,,,,,,,,,,,,,,,,,,,,,45,-77,1,0,0,response3disk,5,88,3,-2,1,0,0,rectangle,3,-2,1,0,0,5,2,"[33,274,112,119,125,312,86,107,268,161,281,286,261,153,139,289,128,83,173,209]",3,-2,1,0,0,0,87,87,101,1,,,,,,,,,,,,,,,,,,,,,,,
,,,,,,,,,,,,,,,,,,,,,,,,,,,,,,,,,,,,,,,,,,,5fbec16fce816f0d19f36f4c,5fe1928de6b281c3447853da,2020-12-22_06h30.53.883,FlowerSimilarity_Experiment,2020.1.2,Win32,60,5fe17d4a51f3a9c1a60f9869,,,,,,,,,,,,,,,,,,,8,FF,,0,1.133635,,,,,,,,,,,,,,,,,,,,,,,,,,,,,,,,,,-45,85,1,0,0,response7disk,8,89,3,-9,1,0,0,rectangle,3,-9,1,0,0,5,4,"[33,274,112,119,125,312,86,107,268,161,281,286,261,153,139,289,128,83,173,209]",3,-9,1,0,0,0,88,88,48,1,,,,,,,,,,,,,,,,,,,,,,,
,,,,,,,,,,,,,,,,,,,,,,,,,,,,,,,,,,,,,,,,,,,5fbec16fce816f0d19f36f4c,5fe1928de6b281c3447853da,2020-12-22_06h30.53.883,FlowerSimilarity_Experiment,2020.1.2,Win32,60,5fe17d4a51f3a9c1a60f9869,,,,,,,,,,,,,,,,,,,3,PF,,7,2.150495,,,,,,,,,,,,,,,,,,,,,,,,,,,,,,,,,,52,75,1,0,0,response1disk,1,90,5,11,1,0,0,rectangle,5,11,1,0,0,5,4,"[33,274,112,119,125,312,86,107,268,161,281,286,261,153,139,289,128,83,173,209]",5,11,1,0,0,0,89,89,96,1,,,,,,,,,,,,,,,,,,,,,,,
,,,,,,,,,,,,,,,,,,,,,,,,,,,,,,,,,,,,,,,,,,,5fbec16fce816f0d19f36f4c,5fe1928de6b281c3447853da,2020-12-22_06h30.53.883,FlowerSimilarity_Experiment,2020.1.2,Win32,60,5fe17d4a51f3a9c1a60f9869,,,,,,,,,,,,,,,,,,,3,PF,,0,1.18713,,,,,,,,,,,,,,,,,,,,,,,,,,,,,,,,,,-45,88,1,0,0,response7disk,7,91,-7,5,1,0,0,rectangle,-7,5,1,0,0,5,6,"[33,274,112,119,125,312,86,107,268,161,281,286,261,153,139,289,128,83,173,209]",-7,5,1,0,0,0,90,90,41,1,,,,,,,,,,,,,,,,,,,,,,,
,,,,,,,,,,,,,,,,,,,,,,,,,,,,,,,,,,,,,,,,,,,5fbec16fce816f0d19f36f4c,5fe1928de6b281c3447853da,2020-12-22_06h30.53.883,FlowerSimilarity_Experiment,2020.1.2,Win32,60,5fe17d4a51f3a9c1a60f9869,,,,,,,,,,,,,,,,,,,6,PF,,3,2.351375,,,,,,,,,,,,,,,,,,,,,,,,,,,,,,,,,,-35,-90,1,0,0,response5disk,3,92,17,-5,1,0,0,rectangle,17,-5,1,0,0,5,0,"[33,274,112,119,125,312,86,107,268,161,281,286,261,153,139,289,128,83,173,209]",17,-5,1,0,0,0,91,91,26,1,,,,,,,,,,,,,,,,,,,,,,,
,,,,,,,,,,,,,,,,,,,,,,,,,,,,,,,,,,,,,,,,,,,5fbec16fce816f0d19f36f4c,5fe1928de6b281c3447853da,2020-12-22_06h30.53.883,FlowerSimilarity_Experiment,2020.1.2,Win32,60,5fe17d4a51f3a9c1a60f9869,,,,,,,,,,,,,,,,,,,7,PF,,6,3.616355,,,,,,,,,,,,,,,,,,,,,,,,,,,,,,,,,,104,41,1,0,0,response1disk,1,93,3,5,1,0,0,rectangle,3,5,1,0,0,5,6,"[33,274,112,119,125,312,86,107,268,161,281,286,261,153,139,289,128,83,173,209]",3,5,1,0,0,0,92,92,53,1,,,,,,,,,,,,,,,,,,,,,,,
,,,,,,,,,,,,,,,,,,,,,,,,,,,,,,,,,,,,,,,,,,,5fbec16fce816f0d19f36f4c,5fe1928de6b281c3447853da,2020-12-22_06h30.53.883,FlowerSimilarity_Experiment,2020.1.2,Win32,60,5fe17d4a51f3a9c1a60f9869,,,,,,,,,,,,,,,,,,,5,FF,,1,1.31657,,,,,,,,,,,,,,,,,,,,,,,,,,,,,,,,,,-115,33,1,0,0,response7disk,7,94,-30,9,1,0,0,rectangle,-30,9,1,0,0,5,0,"[33,274,112,119,125,312,86,107,268,161,281,286,261,153,139,289,128,83,173,209]",-30,9,1,0,0,0,93,93,7,1,,,,,,,,,,,,,,,,,,,,,,,
,,,,,,,,,,,,,,,,,,,,,,,,,,,,,,,,,,,,,,,,,,,5fbec16fce816f0d19f36f4c,5fe1928de6b281c3447853da,2020-12-22_06h30.53.883,FlowerSimilarity_Experiment,2020.1.2,Win32,60,5fe17d4a51f3a9c1a60f9869,,,,,,,,,,,,,,,,,,,6,PF,,0,1.133085,,,,,,,,,,,,,,,,,,,,,,,,,,,,,,,,,,-33,79,1,0,0,response7disk,1,95,-1,7,1,0,0,rectangle,-1,7,1,0,0,5,4,"[33,274,112,119,125,312,86,107,268,161,281,286,261,153,139,289,128,83,173,209]",-1,7,1,0,0,0,94,94,46,1,,,,,,,,,,,,,,,,,,,,,,,
,,,,,,,,,,,,,,,,,,,,,,,,,,,,,,,,,,,,,,,,,,,5fbec16fce816f0d19f36f4c,5fe1928de6b281c3447853da,2020-12-22_06h30.53.883,FlowerSimilarity_Experiment,2020.1.2,Win32,60,5fe17d4a51f3a9c1a60f9869,,,,,,,,,,,,,,,,,,,9,FF,,3,1.916225,,,,,,,,,,,,,,,,,,,,,,,,,,,,,,,,,,-49,-61,1,0,0,response5disk,8,96,10,9,1,0,0,rectangle,10,9,1,0,0,5,5,"[33,274,112,119,125,312,86,107,268,161,281,286,261,153,139,289,128,83,173,209]",10,9,1,0,0,0,95,95,6,1,,,,,,,,,,,,,,,,,,,,,,,
,,,,,,,,,,,,,,,,,,,,,,,,,,,,,,,,,,,,,,,,,,,5fbec16fce816f0d19f36f4c,5fe1928de6b281c3447853da,2020-12-22_06h30.53.883,FlowerSimilarity_Experiment,2020.1.2,Win32,60,5fe17d4a51f3a9c1a60f9869,,,,,,,,,,,,,,,,,,,6,FF,,4,1.61662,,,,,,,,,,,,,,,,,,,,,,,,,,,,,,,,,,32,-93,1,0,0,response3disk,3,97,-6,15,1,0,0,rectangle,-6,15,1,0,0,5,5,"[33,274,112,119,125,312,86,107,268,161,281,286,261,153,139,289,128,83,173,209]",-6,15,1,0,0,0,96,96,21,1,,,,,,,,,,,,,,,,,,,,,,,
,,,,,,,,,,,,,,,,,,,,,,,,,,,,,,,,,,,,,,,,,,,5fbec16fce816f0d19f36f4c,5fe1928de6b281c3447853da,2020-12-22_06h30.53.883,FlowerSimilarity_Experiment,2020.1.2,Win32,60,5fe17d4a51f3a9c1a60f9869,,,,,,,,,,,,,,,,,,,1,FF,,5,2.931305,,,,,,,,,,,,,,,,,,,,,,,,,,,,,,,,,,74,-60,1,0,0,response3disk,6,98,0,-7,1,0,0,rectangle,0,-7,1,0,0,5,1,"[33,274,112,119,125,312,86,107,268,161,281,286,261,153,139,289,128,83,173,209]",0,-7,1,0,0,0,97,97,58,1,,,,,,,,,,,,,,,,,,,,,,,
,,,,,,,,,,,,,,,,,,,,,,,,,,,,,,,,,,,,,,,,,,,5fbec16fce816f0d19f36f4c,5fe1928de6b281c3447853da,2020-12-22_06h30.53.883,FlowerSimilarity_Experiment,2020.1.2,Win32,60,5fe17d4a51f3a9c1a60f9869,,,,,,,,,,,,,,,,,,,8,PF,,5,1.80063,,,,,,,,,,,,,,,,,,,,,,,,,,,,,,,,,,98,-73,1,0,0,response3disk,6,99,8,-6,1,0,0,rectangle,8,-6,1,0,0,5,7,"[33,274,112,119,125,312,86,107,268,161,281,286,261,153,139,289,128,83,173,209]",8,-6,1,0,0,0,98,98,161,1,,,,,,,,,,,,,,,,,,,,,,,
,,,,,,,,,,,,,,,,,,,,,,,,,,,,,,,,,,,,,,,,,,,5fbec16fce816f0d19f36f4c,5fe1928de6b281c3447853da,2020-12-22_06h30.53.883,FlowerSimilarity_Experiment,2020.1.2,Win32,60,5fe17d4a51f3a9c1a60f9869,,,,,,,,,,,,,,,,,,,5,PF,,1,1.46699,,,,,,,,,,,,,,,,,,,,,,,,,,,,,,,,,,-45,27,1,0,0,response7disk,8,100,-5,13,1,0,0,rectangle,-5,13,1,0,0,5,7,"[33,274,112,119,125,312,86,107,268,161,281,286,261,153,139,289,128,83,173,209]",-5,13,1,0,0,0,99,99,149,1,,,,,,,,,,,,,,,,,,,,,,,
,,,,,,,,,,,,,,,,,,,,,,,,,,,,,,,,,,,,,,,,,,,5fbec16fce816f0d19f36f4c,5fe1928de6b281c3447853da,2020-12-22_06h30.53.883,FlowerSimilarity_Experiment,2020.1.2,Win32,60,5fe17d4a51f3a9c1a60f9869,,,,,,,,,,,,,,,,,,,1,FF,,2,2.100215,,,,,,,,,,,,,,,,,,,,,,,,,,,,,,,,,,-85,-51,1,0,0,response5disk,2,101,17,0,1,0,0,rectangle,17,0,1,0,0,5,1,"[33,274,112,119,125,312,86,107,268,161,281,286,261,153,139,289,128,83,173,209]",17,0,1,0,0,0,100,100,2,1,,,,,,,,,,,,,,,,,,,,,,,
,,,,,,,,,,,,,,,,,,,,,,,,,,,,,,,,,,,,,,,,,,,5fbec16fce816f0d19f36f4c,5fe1928de6b281c3447853da,2020-12-22_06h30.53.883,FlowerSimilarity_Experiment,2020.1.2,Win32,60,5fe17d4a51f3a9c1a60f9869,,,,,,,,,,,,,,,,,,,2,PF,,3,1.3669,,,,,,,,,,,,,,,,,,,,,,,,,,,,,,,,,,-65,-98,1,0,0,response5disk,9,102,-9,-13,1,0,0,rectangle,-9,-13,1,0,0,5,3,"[33,274,112,119,125,312,86,107,268,161,281,286,261,153,139,289,128,83,173,209]",-9,-13,1,0,0,0,101,101,39,1,,,,,,,,,,,,,,,,,,,,,,,
,,,,,,,,,,,,,,,,,,,,,,,,,,,,,,,,,,,,,,,,,,,5fbec16fce816f0d19f36f4c,5fe1928de6b281c3447853da,2020-12-22_06h30.53.883,FlowerSimilarity_Experiment,2020.1.2,Win32,60,5fe17d4a51f3a9c1a60f9869,,,,,,,,,,,,,,,,,,,8,PF,,6,2.100085,,,,,,,,,,,,,,,,,,,,,,,,,,,,,,,,,,82,44,1,0,0,response1disk,1,103,12,13,1,0,0,rectangle,12,13,1,0,0,5,2,"[33,274,112,119,125,312,86,107,268,161,281,286,261,153,139,289,128,83,173,209]",12,13,1,0,0,0,102,102,57,1,,,,,,,,,,,,,,,,,,,,,,,
,,,,,,,,,,,,,,,,,,,,,,,,,,,,,,,,,,,,,,,,,,,5fbec16fce816f0d19f36f4c,5fe1928de6b281c3447853da,2020-12-22_06h30.53.883,FlowerSimilarity_Experiment,2020.1.2,Win32,60,5fe17d4a51f3a9c1a60f9869,,,,,,,,,,,,,,,,,,,9,FF,,0,1.116205,,,,,,,,,,,,,,,,,,,,,,,,,,,,,,,,,,-37,72,1,0,0,response7disk,9,104,-8,15,1,0,0,rectangle,-8,15,1,0,0,5,1,"[33,274,112,119,125,312,86,107,268,161,281,286,261,153,139,289,128,83,173,209]",-8,15,1,0,0,0,103,103,17,1,,,,,,,,,,,,,,,,,,,,,,,
,,,,,,,,,,,,,,,,,,,,,,,,,,,,,,,,,,,,,,,,,,,5fbec16fce816f0d19f36f4c,5fe1928de6b281c3447853da,2020-12-22_06h30.53.883,FlowerSimilarity_Experiment,2020.1.2,Win32,60,5fe17d4a51f3a9c1a60f9869,,,,,,,,,,,,,,,,,,,2,FF,,4,1.6005,,,,,,,,,,,,,,,,,,,,,,,,,,,,,,,,,,27,-82,1,0,0,response3disk,6,105,2,-4,1,0,0,rectangle,2,-4,1,0,0,5,3,"[33,274,112,119,125,312,86,107,268,161,281,286,261,153,139,289,128,83,173,209]",2,-4,1,0,0,0,104,104,40,1,,,,,,,,,,,,,,,,,,,,,,,
,,,,,,,,,,,,,,,,,,,,,,,,,,,,,,,,,,,,,,,,,,,5fbec16fce816f0d19f36f4c,5fe1928de6b281c3447853da,2020-12-22_06h30.53.883,FlowerSimilarity_Experiment,2020.1.2,Win32,60,5fe17d4a51f3a9c1a60f9869,,,,,,,,,,,,,,,,,,,7,PF,,1,1.36662,,,,,,,,,,,,,,,,,,,,,,,,,,,,,,,,,,-84,28,1,0,0,response7disk,3,106,24,-14,1,0,0,rectangle,24,-14,1,0,0,5,7,"[33,274,112,119,125,312,86,107,268,161,281,286,261,153,139,289,128,83,173,209]",24,-14,1,0,0,0,105,105,81,1,,,,,,,,,,,,,,,,,,,,,,,
,,,,,,,,,,,,,,,,,,,,,,,,,,,,,,,,,,,,,,,,,,,5fbec16fce816f0d19f36f4c,5fe1928de6b281c3447853da,2020-12-22_06h30.53.883,FlowerSimilarity_Experiment,2020.1.2,Win32,60,5fe17d4a51f3a9c1a60f9869,,,,,,,,,,,,,,,,,,,3,PF,,2,3.41744,,,,,,,,,,,,,,,,,,,,,,,,,,,,,,,,,,-78,-62,1,0,0,response5disk,4,107,2,6,1,0,0,rectangle,89,-42,1,0,0,5,5,"[33,274,112,119,125,312,86,107,268,161,281,286,261,153,139,289,128,83,173,209]",-13,6,1,0,0,0,106,106,30,1,response3disk_3,rectangle,,,,,,,,,,,,,,,,,,,,,
,,,,,,,,,,,,,,,,,,,,,,,,,,,,,,,,,,,,,,,,,,,5fbec16fce816f0d19f36f4c,5fe1928de6b281c3447853da,2020-12-22_06h30.53.883,FlowerSimilarity_Experiment,2020.1.2,Win32,60,5fe17d4a51f3a9c1a60f9869,,,,,,,,,,,,,,,,,,,1,FF,,1,1.61659,,,,,,,,,,,,,,,,,,,,,,,,,,,,,,,,,,-72,60,1,0,0,response7disk,9,108,-6,6,1,0,0,rectangle,-6,6,1,0,0,5,2,"[33,274,112,119,125,312,86,107,268,161,281,286,261,153,139,289,128,83,173,209]",-6,6,1,0,0,0,107,107,123,1,,,,,,,,,,,,,,,,,,,,,,,
,,,,,,,,,,,,,,,,,,,,,,,,,,,,,,,,,,,,,,,,,,,5fbec16fce816f0d19f36f4c,5fe1928de6b281c3447853da,2020-12-22_06h30.53.883,FlowerSimilarity_Experiment,2020.1.2,Win32,60,5fe17d4a51f3a9c1a60f9869,,,,,,,,,,,,,,,,,,,9,PF,,2,1.783615,,,,,,,,,,,,,,,,,,,,,,,,,,,,,,,,,,-67,-31,1,0,0,response5disk,6,109,-27,-7,1,0,0,rectangle,-27,-7,1,0,0,5,6,"[33,274,112,119,125,312,86,107,268,161,281,286,261,153,139,289,128,83,173,209]",-27,-7,1,0,0,0,108,108,148,1,,,,,,,,,,,,,,,,,,,,,,,
,,,,,,,,,,,,,,,,,,,,,,,,,,,,,,,,,,,,,,,,,,,5fbec16fce816f0d19f36f4c,5fe1928de6b281c3447853da,2020-12-22_06h30.53.883,FlowerSimilarity_Experiment,2020.1.2,Win32,60,5fe17d4a51f3a9c1a60f9869,,,,,,,,,,,,,,,,,,,8,PF,,5,1.76709,,,,,,,,,,,,,,,,,,,,,,,,,,,,,,,,,,81,-47,1,0,0,response3disk,9,110,-12,-4,1,0,0,rectangle,-12,-4,1,0,0,5,6,"[33,274,112,119,125,312,86,107,268,161,281,286,261,153,139,289,128,83,173,209]",-12,-4,1,0,0,0,109,109,42,1,,,,,,,,,,,,,,,,,,,,,,,
,,,,,,,,,,,,,,,,,,,,,,,,,,,,,,,,,,,,,,,,,,,5fbec16fce816f0d19f36f4c,5fe1928de6b281c3447853da,2020-12-22_06h30.53.883,FlowerSimilarity_Experiment,2020.1.2,Win32,60,5fe17d4a51f3a9c1a60f9869,,,,,,,,,,,,,,,,,,,3,FF,,2,2.91765,,,,,,,,,,,,,,,,,,,,,,,,,,,,,,,,,,-86,-33,1,0,0,response5disk,8,111,5,1,1,0,0,rectangle,5,1,1,0,0,5,4,"[33,274,112,119,125,312,86,107,268,161,281,286,261,153,139,289,128,83,173,209]",5,1,1,0,0,0,110,110,44,1,,,,,,,,,,,,,,,,,,,,,,,
,,,,,,,,,,,,,,,,,,,,,,,,,,,,,,,,,,,,,,,,,,,5fbec16fce816f0d19f36f4c,5fe1928de6b281c3447853da,2020-12-22_06h30.53.883,FlowerSimilarity_Experiment,2020.1.2,Win32,60,5fe17d4a51f3a9c1a60f9869,,,,,,,,,,,,,,,,,,,1,PF,,1,1.317685,,,,,,,,,,,,,,,,,,,,,,,,,,,,,,,,,,-78,44,1,0,0,response7disk,2,112,-3,9,1,0,0,rectangle,92,32,1,0,0,6,6,"[33,274,112,119,125,312,86,107,268,161,281,286,261,153,139,289,128,83,173,209]",10,-2,1,0,0,0,111,111,24,1,response1disk_3,rectangle,,,,,,,,,,,,,,,,,,,,,
,,,,,,,,,,,,,,,,,,,,,,,,,,,,,,,,,,,,,,,,,,,5fbec16fce816f0d19f36f4c,5fe1928de6b281c3447853da,2020-12-22_06h30.53.883,FlowerSimilarity_Experiment,2020.1.2,Win32,60,5fe17d4a51f3a9c1a60f9869,,,,,,,,,,,,,,,,,,,7,FF,,2,1.73359,,,,,,,,,,,,,,,,,,,,,,,,,,,,,,,,,,-49,-35,1,0,0,response5disk,1,113,10,0,1,0,0,rectangle,10,0,1,0,0,6,7,"[33,274,112,119,125,312,86,107,268,161,281,286,261,153,139,289,128,83,173,209]",10,0,1,0,0,0,112,112,132,1,,,,,,,,,,,,,,,,,,,,,,,
,,,,,,,,,,,,,,,,,,,,,,,,,,,,,,,,,,,,,,,,,,,5fbec16fce816f0d19f36f4c,5fe1928de6b281c3447853da,2020-12-22_06h30.53.883,FlowerSimilarity_Experiment,2020.1.2,Win32,60,5fe17d4a51f3a9c1a60f9869,,,,,,,,,,,,,,,,,,,3,FF,,0,1.130815,,,,,,,,,,,,,,,,,,,,,,,,,,,,,,,,,,-48,88,1,0,0,response7disk,3,114,-7,12,1,0,0,rectangle,-7,12,1,0,0,6,4,"[33,274,112,119,125,312,86,107,268,161,281,286,261,153,139,289,128,83,173,209]",-7,12,1,0,0,0,113,113,68,1,,,,,,,,,,,,,,,,,,,,,,,
,,,,,,,,,,,,,,,,,,,,,,,,,,,,,,,,,,,,,,,,,,,5fbec16fce816f0d19f36f4c,5fe1928de6b281c3447853da,2020-12-22_06h30.53.883,FlowerSimilarity_Experiment,2020.1.2,Win32,60,5fe17d4a51f3a9c1a60f9869,,,,,,,,,,,,,,,,,,,4,PF,,0,1.05691,,,,,,,,,,,,,,,,,,,,,,,,,,,,,,,,,,-53,87,1,0,0,response7disk,4,115,-13,9,1,0,0,rectangle,-13,9,1,0,0,6,2,"[33,274,112,119,125,312,86,107,268,161,281,286,261,153,139,289,128,83,173,209]",-13,9,1,0,0,0,114,114,70,1,,,,,,,,,,,,,,,,,,,,,,,
,,,,,,,,,,,,,,,,,,,,,,,,,,,,,,,,,,,,,,,,,,,5fbec16fce816f0d19f36f4c,5fe1928de6b281c3447853da,2020-12-22_06h30.53.883,FlowerSimilarity_Experiment,2020.1.2,Win32,60,5fe17d4a51f3a9c1a60f9869,,,,,,,,,,,,,,,,,,,1,PF,,1,2.8516,,,,,,,,,,,,,,,,,,,,,,,,,,,,,,,,,,-88,31,1,0,0,response7disk,4,116,14,-1,1,0,0,rectangle,14,-1,1,0,0,6,7,"[33,274,112,119,125,312,86,107,268,161,281,286,261,153,139,289,128,83,173,209]",14,-1,1,0,0,0,115,115,139,1,,,,,,,,,,,,,,,,,,,,,,,
,,,,,,,,,,,,,,,,,,,,,,,,,,,,,,,,,,,,,,,,,,,5fbec16fce816f0d19f36f4c,5fe1928de6b281c3447853da,2020-12-22_06h30.53.883,FlowerSimilarity_Experiment,2020.1.2,Win32,60,5fe17d4a51f3a9c1a60f9869,,,,,,,,,,,,,,,,,,,2,FF,,3,1.672895,,,,,,,,,,,,,,,,,,,,,,,,,,,,,,,,,,-36,-81,1,0,0,response5disk,5,117,-12,-4,1,0,0,rectangle,-12,-4,1,0,0,6,6,"[33,274,112,119,125,312,86,107,268,161,281,286,261,153,139,289,128,83,173,209]",-12,-4,1,0,0,0,116,116,80,1,,,,,,,,,,,,,,,,,,,,,,,
,,,,,,,,,,,,,,,,,,,,,,,,,,,,,,,,,,,,,,,,,,,5fbec16fce816f0d19f36f4c,5fe1928de6b281c3447853da,2020-12-22_06h30.53.883,FlowerSimilarity_Experiment,2020.1.2,Win32,60,5fe17d4a51f3a9c1a60f9869,,,,,,,,,,,,,,,,,,,6,PF,,1,1.83276,,,,,,,,,,,,,,,,,,,,,,,,,,,,,,,,,,-70,32,1,0,0,response7disk,6,118,-5,15,1,0,0,rectangle,-5,15,1,0,0,6,3,"[33,274,112,119,125,312,86,107,268,161,281,286,261,153,139,289,128,83,173,209]",-5,15,1,0,0,0,117,117,0,1,,,,,,,,,,,,,,,,,,,,,,,
,,,,,,,,,,,,,,,,,,,,,,,,,,,,,,,,,,,,,,,,,,,5fbec16fce816f0d19f36f4c,5fe1928de6b281c3447853da,2020-12-22_06h30.53.883,FlowerSimilarity_Experiment,2020.1.2,Win32,60,5fe17d4a51f3a9c1a60f9869,,,,,,,,,,,,,,,,,,,7,FF,,0,1.111825,,,,,,,,,,,,,,,,,,,,,,,,,,,,,,,,,,-41,100,1,0,0,response7disk,7,119,7,-6,1,0,0,rectangle,56,23,1,0,0,6,6,"[33,274,112,119,125,312,86,107,268,161,281,286,261,153,139,289,128,83,173,209]",-6,-1,1,0,0,0,118,118,34,1,response1disk_3,rectangle,,,,,,,,,,,,,,,,,,,,,
,,,,,,,,,,,,,,,,,,,,,,,,,,,,,,,,,,,,,,,,,,,5fbec16fce816f0d19f36f4c,5fe1928de6b281c3447853da,2020-12-22_06h30.53.883,FlowerSimilarity_Experiment,2020.1.2,Win32,60,5fe17d4a51f3a9c1a60f9869,,,,,,,,,,,,,,,,,,,7,FF,,3,2.16639,,,,,,,,,,,,,,,,,,,,,,,,,,,,,,,,,,-21,-77,1,0,0,response5disk,6,120,2,-4,1,0,0,rectangle,2,-4,1,0,0,6,5,"[33,274,112,119,125,312,86,107,268,161,281,286,261,153,139,289,128,83,173,209]",2,-4,1,0,0,0,119,119,31,1,,,,,,,,,,,,,,,,,,,,,,,
,,,,,,,,,,,,,,,,,,,,,,,,,,,,,,,,,,,,,,,,,,,5fbec16fce816f0d19f36f4c,5fe1928de6b281c3447853da,2020-12-22_06h30.53.883,FlowerSimilarity_Experiment,2020.1.2,Win32,60,5fe17d4a51f3a9c1a60f9869,,,,,,,,,,,,,,,,,,,3,FF,,5,4.05137,,,,,,,,,,,,,,,,,,,,,,,,,,,,,,,,,,94,-58,1,0,0,response3disk,6,121,0,-1,1,0,0,rectangle,0,-1,1,0,0,6,5,"[33,274,112,119,125,312,86,107,268,161,281,286,261,153,139,289,128,83,173,209]",0,-1,1,0,0,0,120,120,95,1,,,,,,,,,,,,,,,,,,,,,,,
,,,,,,,,,,,,,,,,,,,,,,,,,,,,,,,,,,,,,,,,,,,5fbec16fce816f0d19f36f4c,5fe1928de6b281c3447853da,2020-12-22_06h30.53.883,FlowerSimilarity_Experiment,2020.1.2,Win32,60,5fe17d4a51f3a9c1a60f9869,,,,,,,,,,,,,,,,,,,3,FF,,3,1.350445,,,,,,,,,,,,,,,,,,,,,,,,,,,,,,,,,,-36,-61,1,0,0,response5disk,4,122,-12,-12,1,0,0,rectangle,-12,-12,1,0,0,6,6,"[33,274,112,119,125,312,86,107,268,161,281,286,261,153,139,289,128,83,173,209]",-12,-12,1,0,0,0,121,121,110,1,,,,,,,,,,,,,,,,,,,,,,,
,,,,,,,,,,,,,,,,,,,,,,,,,,,,,,,,,,,,,,,,,,,5fbec16fce816f0d19f36f4c,5fe1928de6b281c3447853da,2020-12-22_06h30.53.883,FlowerSimilarity_Experiment,2020.1.2,Win32,60,5fe17d4a51f3a9c1a60f9869,,,,,,,,,,,,,,,,,,,6,PF,,2,1.36651,,,,,,,,,,,,,,,,,,,,,,,,,,,,,,,,,,-58,-54,1,0,0,response5disk,7,123,-10,-1,1,0,0,rectangle,-10,-1,1,0,0,6,1,"[33,274,112,119,125,312,86,107,268,161,281,286,261,153,139,289,128,83,173,209]",-10,-1,1,0,0,0,122,122,50,1,,,,,,,,,,,,,,,,,,,,,,,
,,,,,,,,,,,,,,,,,,,,,,,,,,,,,,,,,,,,,,,,,,,5fbec16fce816f0d19f36f4c,5fe1928de6b281c3447853da,2020-12-22_06h30.53.883,FlowerSimilarity_Experiment,2020.1.2,Win32,60,5fe17d4a51f3a9c1a60f9869,,,,,,,,,,,,,,,,,,,1,PF,,4,3.006965,,,,,,,,,,,,,,,,,,,,,,,,,,,,,,,,,,52,-103,1,0,0,response3disk,7,124,-3,-6,1,0,0,rectangle,-3,-6,1,0,0,6,0,"[33,274,112,119,125,312,86,107,268,161,281,286,261,153,139,289,128,83,173,209]",-3,-6,1,0,0,0,123,123,150,1,,,,,,,,,,,,,,,,,,,,,,,
,,,,,,,,,,,,,,,,,,,,,,,,,,,,,,,,,,,,,,,,,,,5fbec16fce816f0d19f36f4c,5fe1928de6b281c3447853da,2020-12-22_06h30.53.883,FlowerSimilarity_Experiment,2020.1.2,Win32,60,5fe17d4a51f3a9c1a60f9869,,,,,,,,,,,,,,,,,,,6,FF,,4,1.819395,,,,,,,,,,,,,,,,,,,,,,,,,,,,,,,,,,29,-97,1,0,0,response3disk,5,125,0,3,1,0,0,rectangle,51,-122,1,0,0,4,4,"[33,274,112,119,125,312,86,107,268,161,281,286,261,153,139,289,128,83,173,209]",-6,-1,1,0,0,0,124,124,126,1,response3disk_3,rectangle,,,,,,,,,,,,,,,,,,,,,
,,,,,,,,,,,,,,,,,,,,,,,,,,,,,,,,,,,,,,,,,,,5fbec16fce816f0d19f36f4c,5fe1928de6b281c3447853da,2020-12-22_06h30.53.883,FlowerSimilarity_Experiment,2020.1.2,Win32,60,5fe17d4a51f3a9c1a60f9869,,,,,,,,,,,,,,,,,,,9,FF,,3,1.386985,,,,,,,,,,,,,,,,,,,,,,,,,,,,,,,,,,-44,-71,1,0,0,response5disk,4,126,0,9,1,0,0,rectangle,0,9,1,0,0,4,1,"[33,274,112,119,125,312,86,107,268,161,281,286,261,153,139,289,128,83,173,209]",0,9,1,0,0,0,125,125,60,1,,,,,,,,,,,,,,,,,,,,,,,
,,,,,,,,,,,,,,,,,,,,,,,,,,,,,,,,,,,,,,,,,,,5fbec16fce816f0d19f36f4c,5fe1928de6b281c3447853da,2020-12-22_06h30.53.883,FlowerSimilarity_Experiment,2020.1.2,Win32,60,5fe17d4a51f3a9c1a60f9869,,,,,,,,,,,,,,,,,,,1,FF,,2,1.339625,,,,,,,,,,,,,,,,,,,,,,,,,,,,,,,,,,-88,-62,1,0,0,response5disk,3,127,-2,1,1,0,0,rectangle,-2,1,1,0,0,4,7,"[33,274,112,119,125,312,86,107,268,161,281,286,261,153,139,289,128,83,173,209]",-2,1,1,0,0,0,126,126,99,1,,,,,,,,,,,,,,,,,,,,,,,
,,,,,,,,,,,,,,,,,,,,,,,,,,,,,,,,,,,,,,,,,,,5fbec16fce816f0d19f36f4c,5fe1928de6b281c3447853da,2020-12-22_06h30.53.883,FlowerSimilarity_Experiment,2020.1.2,Win32,60,5fe17d4a51f3a9c1a60f9869,,,,,,,,,,,,,,,,,,,5,FF,,1,4.58311,,,,,,,,,,,,,,,,,,,,,,,,,,,,,,,,,,-94,51,1,0,0,response7disk,8,128,-4,2,1,0,0,rectangle,-90,27,1,0,0,1,1,"[33,274,112,119,125,312,86,107,268,161,281,286,261,153,139,289,128,83,173,209]",17,-10,1,0,0,0,127,127,16,1,response7disk_3,rectangle,,,,,,,,,,,,,,,,,,,,,
,,,,,,,,,,,,,,,,,,,,,,,,,,,,,,,,,,,,,,,,,,,5fbec16fce816f0d19f36f4c,5fe1928de6b281c3447853da,2020-12-22_06h30.53.883,FlowerSimilarity_Experiment,2020.1.2,Win32,60,5fe17d4a51f3a9c1a60f9869,,,,,,,,,,,,,,,,,,,7,PF,,5,1.671495,,,,,,,,,,,,,,,,,,,,,,,,,,,,,,,,,,82,-54,1,0,0,response3disk,6,129,-10,13,1,0,0,rectangle,-10,13,1,0,0,1,5,"[33,274,112,119,125,312,86,107,268,161,281,286,261,153,139,289,128,83,173,209]",-10,13,1,0,0,0,128,128,29,1,,,,,,,,,,,,,,,,,,,,,,,
,,,,,,,,,,,,,,,,,,,,,,,,,,,,,,,,,,,,,,,,,,,5fbec16fce816f0d19f36f4c,5fe1928de6b281c3447853da,2020-12-22_06h30.53.883,FlowerSimilarity_Experiment,2020.1.2,Win32,60,5fe17d4a51f3a9c1a60f9869,,,,,,,,,,,,,,,,,,,4,FF,,6,2.10019,,,,,,,,,,,,,,,,,,,,,,,,,,,,,,,,,,88,71,1,0,0,response1disk,6,130,8,6,1,0,0,rectangle,8,6,1,0,0,1,0,"[33,274,112,119,125,312,86,107,268,161,281,286,261,153,139,289,128,83,173,209]",8,6,1,0,0,0,129,129,122,1,,,,,,,,,,,,,,,,,,,,,,,
,,,,,,,,,,,,,,,,,,,,,,,,,,,,,,,,,,,,,,,,,,,5fbec16fce816f0d19f36f4c,5fe1928de6b281c3447853da,2020-12-22_06h30.53.883,FlowerSimilarity_Experiment,2020.1.2,Win32,60,5fe17d4a51f3a9c1a60f9869,,,,,,,,,,,,,,,,,,,4,FF,,0,1.067335,,,,,,,,,,,,,,,,,,,,,,,,,,,,,,,,,,-67,95,1,0,0,response7disk,4,131,-3,0,1,0,0,rectangle,-3,0,1,0,0,1,2,"[33,274,112,119,125,312,86,107,268,161,281,286,261,153,139,289,128,83,173,209]",-3,0,1,0,0,0,130,130,84,1,,,,,,,,,,,,,,,,,,,,,,,
,,,,,,,,,,,,,,,,,,,,,,,,,,,,,,,,,,,,,,,,,,,5fbec16fce816f0d19f36f4c,5fe1928de6b281c3447853da,2020-12-22_06h30.53.883,FlowerSimilarity_Experiment,2020.1.2,Win32,60,5fe17d4a51f3a9c1a60f9869,,,,,,,,,,,,,,,,,,,1,FF,,2,1.467625,,,,,,,,,,,,,,,,,,,,,,,,,,,,,,,,,,-54,-34,1,0,0,response5disk,7,132,-9,-9,1,0,0,rectangle,-9,-9,1,0,0,1,6,"[33,274,112,119,125,312,86,107,268,161,281,286,261,153,139,289,128,83,173,209]",-9,-9,1,0,0,0,131,131,137,1,,,,,,,,,,,,,,,,,,,,,,,
,,,,,,,,,,,,,,,,,,,,,,,,,,,,,,,,,,,,,,,,,,,5fbec16fce816f0d19f36f4c,5fe1928de6b281c3447853da,2020-12-22_06h30.53.883,FlowerSimilarity_Experiment,2020.1.2,Win32,60,5fe17d4a51f3a9c1a60f9869,,,,,,,,,,,,,,,,,,,1,FF,,6,3.149215,,,,,,,,,,,,,,,,,,,,,,,,,,,,,,,,,,101,40,1,0,0,response1disk,5,133,-11,-12,1,0,0,rectangle,-11,-12,1,0,0,1,1,"[33,274,112,119,125,312,86,107,268,161,281,286,261,153,139,289,128,83,173,209]",-11,-12,1,0,0,0,132,132,82,1,,,,,,,,,,,,,,,,,,,,,,,
,,,,,,,,,,,,,,,,,,,,,,,,,,,,,,,,,,,,,,,,,,,5fbec16fce816f0d19f36f4c,5fe1928de6b281c3447853da,2020-12-22_06h30.53.883,FlowerSimilarity_Experiment,2020.1.2,Win32,60,5fe17d4a51f3a9c1a60f9869,,,,,,,,,,,,,,,,,,,2,PF,,6,1.68264,,,,,,,,,,,,,,,,,,,,,,,,,,,,,,,,,,68,27,1,0,0,response1disk,4,134,-5,-1,1,0,0,rectangle,-5,-1,1,0,0,1,0,"[33,274,112,119,125,312,86,107,268,161,281,286,261,153,139,289,128,83,173,209]",-5,-1,1,0,0,0,133,133,127,1,,,,,,,,,,,,,,,,,,,,,,,
,,,,,,,,,,,,,,,,,,,,,,,,,,,,,,,,,,,,,,,,,,,5fbec16fce816f0d19f36f4c,5fe1928de6b281c3447853da,2020-12-22_06h30.53.883,FlowerSimilarity_Experiment,2020.1.2,Win32,60,5fe17d4a51f3a9c1a60f9869,,,,,,,,,,,,,,,,,,,6,FF,,1,1.533985,,,,,,,,,,,,,,,,,,,,,,,,,,,,,,,,,,-81,49,1,0,0,response7disk,8,135,-12,3,1,0,0,rectangle,-12,3,1,0,0,1,6,"[33,274,112,119,125,312,86,107,268,161,281,286,261,153,139,289,128,83,173,209]",-12,3,1,0,0,0,134,134,133,1,,,,,,,,,,,,,,,,,,,,,,,
,,,,,,,,,,,,,,,,,,,,,,,,,,,,,,,,,,,,,,,,,,,5fbec16fce816f0d19f36f4c,5fe1928de6b281c3447853da,2020-12-22_06h30.53.883,FlowerSimilarity_Experiment,2020.1.2,Win32,60,5fe17d4a51f3a9c1a60f9869,,,,,,,,,,,,,,,,,,,3,PF,,3,2.41736,,,,,,,,,,,,,,,,,,,,,,,,,,,,,,,,,,-36,-73,1,0,0,response5disk,5,136,6,4,1,0,0,rectangle,6,4,1,0,0,1,5,"[33,274,112,119,125,312,86,107,268,161,281,286,261,153,139,289,128,83,173,209]",6,4,1,0,0,0,135,135,66,1,,,,,,,,,,,,,,,,,,,,,,,
,,,,,,,,,,,,,,,,,,,,,,,,,,,,,,,,,,,,,,,,,,,5fbec16fce816f0d19f36f4c,5fe1928de6b281c3447853da,2020-12-22_06h30.53.883,FlowerSimilarity_Experiment,2020.1.2,Win32,60,5fe17d4a51f3a9c1a60f9869,,,,,,,,,,,,,,,,,,,5,FF,,3,2.081865,,,,,,,,,,,,,,,,,,,,,,,,,,,,,,,,,,-57,-88,1,0,0,response5disk,1,137,-12,-11,1,0,0,rectangle,-12,-11,1,0,0,1,6,"[33,274,112,119,125,312,86,107,268,161,281,286,261,153,139,289,128,83,173,209]",-12,-11,1,0,0,0,136,136,131,1,,,,,,,,,,,,,,,,,,,,,,,
,,,,,,,,,,,,,,,,,,,,,,,,,,,,,,,,,,,,,,,,,,,5fbec16fce816f0d19f36f4c,5fe1928de6b281c3447853da,2020-12-22_06h30.53.883,FlowerSimilarity_Experiment,2020.1.2,Win32,60,5fe17d4a51f3a9c1a60f9869,,,,,,,,,,,,,,,,,,,7,FF,,1,3.76735,,,,,,,,,,,,,,,,,,,,,,,,,,,,,,,,,,-111,49,1,0,0,response7disk,4,138,2,-4,1,0,0,rectangle,2,-4,1,0,0,1,6,"[33,274,112,119,125,312,86,107,268,161,281,286,261,153,139,289,128,83,173,209]",2,-4,1,0,0,0,137,137,158,1,,,,,,,,,,,,,,,,,,,,,,,
,,,,,,,,,,,,,,,,,,,,,,,,,,,,,,,,,,,,,,,,,,,5fbec16fce816f0d19f36f4c,5fe1928de6b281c3447853da,2020-12-22_06h30.53.883,FlowerSimilarity_Experiment,2020.1.2,Win32,60,5fe17d4a51f3a9c1a60f9869,,,,,,,,,,,,,,,,,,,1,PF,,1,1.937375,,,,,,,,,,,,,,,,,,,,,,,,,,,,,,,,,,-78,31,1,0,0,response7disk,9,139,-7,1,1,0,0,rectangle,69,45,1,0,0,6,6,"[33,274,112,119,125,312,86,107,268,161,281,286,261,153,139,289,128,83,173,209]",3,-5,1,0,0,0,138,138,15,1,response1disk_3,rectangle,,,,,,,,,,,,,,,,,,,,,
,,,,,,,,,,,,,,,,,,,,,,,,,,,,,,,,,,,,,,,,,,,5fbec16fce816f0d19f36f4c,5fe1928de6b281c3447853da,2020-12-22_06h30.53.883,FlowerSimilarity_Experiment,2020.1.2,Win32,60,5fe17d4a51f3a9c1a60f9869,,,,,,,,,,,,,,,,,,,9,FF,,2,1.77084,,,,,,,,,,,,,,,,,,,,,,,,,,,,,,,,,,-62,-42,1,0,0,response5disk,5,140,-4,-9,1,0,0,rectangle,-4,-9,1,0,0,6,7,"[33,274,112,119,125,312,86,107,268,161,281,286,261,153,139,289,128,83,173,209]",-4,-9,1,0,0,0,139,139,128,1,,,,,,,,,,,,,,,,,,,,,,,
,,,,,,,,,,,,,,,,,,,,,,,,,,,,,,,,,,,,,,,,,,,5fbec16fce816f0d19f36f4c,5fe1928de6b281c3447853da,2020-12-22_06h30.53.883,FlowerSimilarity_Experiment,2020.1.2,Win32,60,5fe17d4a51f3a9c1a60f9869,,,,,,,,,,,,,,,,,,,6,FF,,4,1.507275,,,,,,,,,,,,,,,,,,,,,,,,,,,,,,,,,,61,-69,1,0,0,response3disk,7,141,9,-13,1,0,0,rectangle,9,-13,1,0,0,6,1,"[33,274,112,119,125,312,86,107,268,161,281,286,261,153,139,289,128,83,173,209]",9,-13,1,0,0,0,140,140,18,1,,,,,,,,,,,,,,,,,,,,,,,
,,,,,,,,,,,,,,,,,,,,,,,,,,,,,,,,,,,,,,,,,,,5fbec16fce816f0d19f36f4c,5fe1928de6b281c3447853da,2020-12-22_06h30.53.883,FlowerSimilarity_Experiment,2020.1.2,Win32,60,5fe17d4a51f3a9c1a60f9869,,,,,,,,,,,,,,,,,,,3,PF,,5,2.06903,,,,,,,,,,,,,,,,,,,,,,,,,,,,,,,,,,67,-46,1,0,0,response3disk,2,142,-30,2,1,0,0,rectangle,-30,2,1,0,0,6,0,"[33,274,112,119,125,312,86,107,268,161,281,286,261,153,139,289,128,83,173,209]",-30,2,1,0,0,0,141,141,36,1,,,,,,,,,,,,,,,,,,,,,,,
,,,,,,,,,,,,,,,,,,,,,,,,,,,,,,,,,,,,,,,,,,,5fbec16fce816f0d19f36f4c,5fe1928de6b281c3447853da,2020-12-22_06h30.53.883,FlowerSimilarity_Experiment,2020.1.2,Win32,60,5fe17d4a51f3a9c1a60f9869,,,,,,,,,,,,,,,,,,,4,PF,,1,2.333795,,,,,,,,,,,,,,,,,,,,,,,,,,,,,,,,,,-85,19,1,0,0,response7disk,7,143,-8,-4,1,0,0,rectangle,-8,-4,1,0,0,6,4,"[33,274,112,119,125,312,86,107,268,161,281,286,261,153,139,289,128,83,173,209]",-8,-4,1,0,0,0,142,142,38,1,,,,,,,,,,,,,,,,,,,,,,,
,,,,,,,,,,,,,,,,,,,,,,,,,,,,,,,,,,,,,,,,,,,5fbec16fce816f0d19f36f4c,5fe1928de6b281c3447853da,2020-12-22_06h30.53.883,FlowerSimilarity_Experiment,2020.1.2,Win32,60,5fe17d4a51f3a9c1a60f9869,,,,,,,,,,,,,,,,,,,3,PF,,5,1.76611,,,,,,,,,,,,,,,,,,,,,,,,,,,,,,,,,,49,-43,1,0,0,response3disk,8,144,13,-7,1,0,0,rectangle,13,-7,1,0,0,6,0,"[33,274,112,119,125,312,86,107,268,161,281,286,261,153,139,289,128,83,173,209]",13,-7,1,0,0,0,143,143,3,1,,,,,,,,,,,,,,,,,,,,,,,
,,,,,,,,,,,,,,,,,,,,,,,,,,,,,,,,,,,,,,,,,,,5fbec16fce816f0d19f36f4c,5fe1928de6b281c3447853da,2020-12-22_06h30.53.883,FlowerSimilarity_Experiment,2020.1.2,Win32,60,5fe17d4a51f3a9c1a60f9869,,,,,,,,,,,,,,,,,,,6,FF,,5,2.382335,,,,,,,,,,,,,,,,,,,,,,,,,,,,,,,,,,98,-44,1,0,0,response3disk,1,145,12,-13,1,0,0,rectangle,12,-13,1,0,0,6,4,"[33,274,112,119,125,312,86,107,268,161,281,286,261,153,139,289,128,83,173,209]",12,-13,1,0,0,0,144,144,5,1,,,,,,,,,,,,,,,,,,,,,,,
,,,,,,,,,,,,,,,,,,,,,,,,,,,,,,,,,,,,,,,,,,,5fbec16fce816f0d19f36f4c,5fe1928de6b281c3447853da,2020-12-22_06h30.53.883,FlowerSimilarity_Experiment,2020.1.2,Win32,60,5fe17d4a51f3a9c1a60f9869,,,,,,,,,,,,,,,,,,,4,PF,,3,1.93392,,,,,,,,,,,,,,,,,,,,,,,,,,,,,,,,,,-44,-71,1,0,0,response5disk,3,146,-8,1,1,0,0,rectangle,-8,1,1,0,0,6,1,"[33,274,112,119,125,312,86,107,268,161,281,286,261,153,139,289,128,83,173,209]",-8,1,1,0,0,0,145,145,89,1,,,,,,,,,,,,,,,,,,,,,,,
,,,,,,,,,,,,,,,,,,,,,,,,,,,,,,,,,,,,,,,,,,,5fbec16fce816f0d19f36f4c,5fe1928de6b281c3447853da,2020-12-22_06h30.53.883,FlowerSimilarity_Experiment,2020.1.2,Win32,60,5fe17d4a51f3a9c1a60f9869,,,,,,,,,,,,,,,,,,,7,PF,,5,1.39207,,,,,,,,,,,,,,,,,,,,,,,,,,,,,,,,,,81,-41,1,0,0,response3disk,8,147,-2,-6,1,0,0,rectangle,-2,-6,1,0,0,6,6,"[33,274,112,119,125,312,86,107,268,161,281,286,261,153,139,289,128,83,173,209]",-2,-6,1,0,0,0,146,146,140,1,,,,,,,,,,,,,,,,,,,,,,,
,,,,,,,,,,,,,,,,,,,,,,,,,,,,,,,,,,,,,,,,,,,5fbec16fce816f0d19f36f4c,5fe1928de6b281c3447853da,2020-12-22_06h30.53.883,FlowerSimilarity_Experiment,2020.1.2,Win32,60,5fe17d4a51f3a9c1a60f9869,,,,,,,,,,,,,,,,,,,2,PF,,4,3.96919,,,,,,,,,,,,,,,,,,,,,,,,,,,,,,,,,,29,-59,1,0,0,response3disk,5,148,5,-4,1,0,0,rectangle,5,-4,1,0,0,6,0,"[33,274,112,119,125,312,86,107,268,161,281,286,261,153,139,289,128,83,173,209]",5,-4,1,0,0,0,147,147,147,1,,,,,,,,,,,,,,,,,,,,,,,
,,,,,,,,,,,,,,,,,,,,,,,,,,,,,,,,,,,,,,,,,,,5fbec16fce816f0d19f36f4c,5fe1928de6b281c3447853da,2020-12-22_06h30.53.883,FlowerSimilarity_Experiment,2020.1.2,Win32,60,5fe17d4a51f3a9c1a60f9869,,,,,,,,,,,,,,,,,,,4,FF,,2,1.963735,,,,,,,,,,,,,,,,,,,,,,,,,,,,,,,,,,-96,-44,1,0,0,response5disk,9,149,13,3,1,0,0,rectangle,13,3,1,0,0,6,0,"[33,274,112,119,125,312,86,107,268,161,281,286,261,153,139,289,128,83,173,209]",13,3,1,0,0,0,148,148,90,1,,,,,,,,,,,,,,,,,,,,,,,
,,,,,,,,,,,,,,,,,,,,,,,,,,,,,,,,,,,,,,,,,,,5fbec16fce816f0d19f36f4c,5fe1928de6b281c3447853da,2020-12-22_06h30.53.883,FlowerSimilarity_Experiment,2020.1.2,Win32,60,5fe17d4a51f3a9c1a60f9869,,,,,,,,,,,,,,,,,,,5,PF,,1,1.40238,,,,,,,,,,,,,,,,,,,,,,,,,,,,,,,,,,-97,49,1,0,0,response7disk,2,150,-22,6,1,0,0,rectangle,-22,6,1,0,0,6,6,"[33,274,112,119,125,312,86,107,268,161,281,286,261,153,139,289,128,83,173,209]",-22,6,1,0,0,0,149,149,129,1,,,,,,,,,,,,,,,,,,,,,,,
,,,,,,,,,,,,,,,,,,,,,,,,,,,,,,,,,,,,,,,,,,,5fbec16fce816f0d19f36f4c,5fe1928de6b281c3447853da,2020-12-22_06h30.53.883,FlowerSimilarity_Experiment,2020.1.2,Win32,60,5fe17d4a51f3a9c1a60f9869,,,,,,,,,,,,,,,,,,,7,FF,,2,1.63479,,,,,,,,,,,,,,,,,,,,,,,,,,,,,,,,,,-80,-45,1,0,0,response5disk,9,151,28,8,1,0,0,rectangle,28,8,1,0,0,6,3,"[33,274,112,119,125,312,86,107,268,161,281,286,261,153,139,289,128,83,173,209]",28,8,1,0,0,0,150,150,155,1,,,,,,,,,,,,,,,,,,,,,,,
,,,,,,,,,,,,,,,,,,,,,,,,,,,,,,,,,,,,,,,,,,,5fbec16fce816f0d19f36f4c,5fe1928de6b281c3447853da,2020-12-22_06h30.53.883,FlowerSimilarity_Experiment,2020.1.2,Win32,60,5fe17d4a51f3a9c1a60f9869,,,,,,,,,,,,,,,,,,,6,FF,,1,1.739825,,,,,,,,,,,,,,,,,,,,,,,,,,,,,,,,,,-77,48,1,0,0,response7disk,9,152,-7,7,1,0,0,rectangle,-7,7,1,0,0,6,2,"[33,274,112,119,125,312,86,107,268,161,281,286,261,153,139,289,128,83,173,209]",-7,7,1,0,0,0,151,151,160,1,,,,,,,,,,,,,,,,,,,,,,,
,,,,,,,,,,,,,,,,,,,,,,,,,,,,,,,,,,,,,,,,,,,5fbec16fce816f0d19f36f4c,5fe1928de6b281c3447853da,2020-12-22_06h30.53.883,FlowerSimilarity_Experiment,2020.1.2,Win32,60,5fe17d4a51f3a9c1a60f9869,,,,,,,,,,,,,,,,,,,4,PF,,5,3.51942,,,,,,,,,,,,,,,,,,,,,,,,,,,,,,,,,,89,-51,1,0,0,response3disk,6,153,14,0,1,0,0,rectangle,40,-68,1,0,0,4,4,"[33,274,112,119,125,312,86,107,268,161,281,286,261,153,139,289,128,83,173,209]",11,-2,1,0,0,0,152,152,120,1,response3disk_3,rectangle,,,,,,,,,,,,,,,,,,,,,
,,,,,,,,,,,,,,,,,,,,,,,,,,,,,,,,,,,,,,,,,,,5fbec16fce816f0d19f36f4c,5fe1928de6b281c3447853da,2020-12-22_06h30.53.883,FlowerSimilarity_Experiment,2020.1.2,Win32,60,5fe17d4a51f3a9c1a60f9869,,,,,,,,,,,,,,,,,,,8,FF,,2,3.046845,,,,,,,,,,,,,,,,,,,,,,,,,,,,,,,,,,-98,-28,1,0,0,response5disk,9,154,-5,-14,1,0,0,rectangle,-5,-14,1,0,0,4,4,"[33,274,112,119,125,312,86,107,268,161,281,286,261,153,139,289,128,83,173,209]",-5,-14,1,0,0,0,153,153,105,1,,,,,,,,,,,,,,,,,,,,,,,
,,,,,,,,,,,,,,,,,,,,,,,,,,,,,,,,,,,,,,,,,,,5fbec16fce816f0d19f36f4c,5fe1928de6b281c3447853da,2020-12-22_06h30.53.883,FlowerSimilarity_Experiment,2020.1.2,Win32,60,5fe17d4a51f3a9c1a60f9869,,,,,,,,,,,,,,,,,,,1,PF,,1,1.46752,,,,,,,,,,,,,,,,,,,,,,,,,,,,,,,,,,-60,33,1,0,0,response7disk,1,155,15,-2,1,0,0,rectangle,15,-2,1,0,0,4,7,"[33,274,112,119,125,312,86,107,268,161,281,286,261,153,139,289,128,83,173,209]",15,-2,1,0,0,0,154,154,76,1,,,,,,,,,,,,,,,,,,,,,,,
,,,,,,,,,,,,,,,,,,,,,,,,,,,,,,,,,,,,,,,,,,,5fbec16fce816f0d19f36f4c,5fe1928de6b281c3447853da,2020-12-22_06h30.53.883,FlowerSimilarity_Experiment,2020.1.2,Win32,60,5fe17d4a51f3a9c1a60f9869,,,,,,,,,,,,,,,,,,,2,FF,,2,2.002835,,,,,,,,,,,,,,,,,,,,,,,,,,,,,,,,,,-96,-23,1,0,0,response5disk,4,156,-10,-4,1,0,0,rectangle,-10,-4,1,0,0,4,1,"[33,274,112,119,125,312,86,107,268,161,281,286,261,153,139,289,128,83,173,209]",-10,-4,1,0,0,0,155,155,145,1,,,,,,,,,,,,,,,,,,,,,,,
,,,,,,,,,,,,,,,,,,,,,,,,,,,,,,,,,,,,,,,,,,,5fbec16fce816f0d19f36f4c,5fe1928de6b281c3447853da,2020-12-22_06h30.53.883,FlowerSimilarity_Experiment,2020.1.2,Win32,60,5fe17d4a51f3a9c1a60f9869,,,,,,,,,,,,,,,,,,,9,PF,,5,1.8732,,,,,,,,,,,,,,,,,,,,,,,,,,,,,,,,,,72,-52,1,0,0,response3disk,8,157,4,-10,1,0,0,rectangle,4,-10,1,0,0,4,6,"[33,274,112,119,125,312,86,107,268,161,281,286,261,153,139,289,128,83,173,209]",4,-10,1,0,0,0,156,156,67,1,,,,,,,,,,,,,,,,,,,,,,,
,,,,,,,,,,,,,,,,,,,,,,,,,,,,,,,,,,,,,,,,,,,5fbec16fce816f0d19f36f4c,5fe1928de6b281c3447853da,2020-12-22_06h30.53.883,FlowerSimilarity_Experiment,2020.1.2,Win32,60,5fe17d4a51f3a9c1a60f9869,,,,,,,,,,,,,,,,,,,7,PF,,2,1.93977,,,,,,,,,,,,,,,,,,,,,,,,,,,,,,,,,,-82,-76,1,0,0,response5disk,2,158,-4,-7,1,0,0,rectangle,-4,-7,1,0,0,4,6,"[33,274,112,119,125,312,86,107,268,161,281,286,261,153,139,289,128,83,173,209]",-4,-7,1,0,0,0,157,157,32,1,,,,,,,,,,,,,,,,,,,,,,,
,,,,,,,,,,,,,,,,,,,,,,,,,,,,,,,,,,,,,,,,,,,5fbec16fce816f0d19f36f4c,5fe1928de6b281c3447853da,2020-12-22_06h30.53.883,FlowerSimilarity_Experiment,2020.1.2,Win32,60,5fe17d4a51f3a9c1a60f9869,,,,,,,,,,,,,,,,,,,5,PF,,4,1.60536,,,,,,,,,,,,,,,,,,,,,,,,,,,,,,,,,,29,-68,1,0,0,response3disk,1,159,-1,0,1,0,0,rectangle,-1,0,1,0,0,4,5,"[33,274,112,119,125,312,86,107,268,161,281,286,261,153,139,289,128,83,173,209]",-1,0,1,0,0,0,158,158,159,1,,,,,,,,,,,,,,,,,,,,,,,
,,,,,,,,,,,,,,,,,,,,,,,,,,,,,,,,,,,,,,,,,,,5fbec16fce816f0d19f36f4c,5fe1928de6b281c3447853da,2020-12-22_06h30.53.883,FlowerSimilarity_Experiment,2020.1.2,Win32,60,5fe17d4a51f3a9c1a60f9869,,,,,,,,,,,,,,,,,,,9,PF,,0,1.50313,,,,,,,,,,,,,,,,,,,,,,,,,,,,,,,,,,-73,91,1,0,0,response7disk,1,160,0,-5,1,0,0,rectangle,0,-5,1,0,0,4,4,"[33,274,112,119,125,312,86,107,268,161,281,286,261,153,139,289,128,83,173,209]",0,-5,1,0,0,0,159,159,74,1,,,,,,,,,,,,,,,,,,,,,,,
,,,,,,,,,,,,,,,,,,,,,,,,,,,,,,,,,,,,,,,,,,,5fbec16fce816f0d19f36f4c,5fe1928de6b281c3447853da,2020-12-22_06h30.53.883,FlowerSimilarity_Experiment,2020.1.2,Win32,60,5fe17d4a51f3a9c1a60f9869,,,,,,,,,,,,,,,,,,,6,FF,,5,1.286585,,,,,,,,,,,,,,,,,,,,,,,,,,,,,,,,,,115,-33,1,0,0,response3disk,2,161,-8,10,1,0,0,rectangle,44,-103,1,0,0,4,4,"[33,274,112,119,125,312,86,107,268,161,281,286,261,153,139,289,128,83,173,209]",-4,9,1,0,0,0,160,160,112,1,response3disk_3,rectangle,,,,,,,,,,,,,,,,,,,,,
,,,,,,,,,,,,,,,,,,,,,,,,,,,,,,,,,,,,,,,,,,,5fbec16fce816f0d19f36f4c,5fe1928de6b281c3447853da,2020-12-22_06h30.53.883,FlowerSimilarity_Experiment,2020.1.2,Win32,60,5fe17d4a51f3a9c1a60f9869,,,,,,,,,,,,,,,,,,,5,PF,,2,1.73359,,,,,,,,,,,,,,,,,,,,,,,,,,,,,,,,,,-83,-19,1,0,0,response5disk,9,162,1,1,1,0,0,rectangle,1,1,1,0,0,4,7,"[33,274,112,119,125,312,86,107,268,161,281,286,261,153,139,289,128,83,173,209]",1,1,1,0,0,0,161,161,136,1,,,,,,,,,,,,,,,,,,,,,,,
,,,,,,,,,,,,,,,,,,,,,,,,,,,,,,,,,,,,,,,,,,,5fbec16fce816f0d19f36f4c,5fe1928de6b281c3447853da,2020-12-22_06h30.53.883,FlowerSimilarity_Experiment,2020.1.2,Win32,60,5fe17d4a51f3a9c1a60f9869,,,,,,,,,,,,,,,,,,,,,,,,,,,,,,,,,,,,,,,,,,,,,,,,,,,,,,,,,,,,,,,,,,,,,,,,,,,,,,,,,,,,,,,,,,,0,0,0,0,1,,,,,,,,,,,,,,,,
,,,,,,,,,,,,,,,,,,,,,,,,,,,,,,,,,,,,,,,,,,,5fbec16fce816f0d19f36f4c,5fe1928de6b281c3447853da,2020-12-22_06h30.53.883,FlowerSimilarity_Experiment,2020.1.2,Win32,60,5fe17d4a51f3a9c1a60f9869,,,,,,,,,,,,,,,,,,,7,FF,,2,1.968585,,,,,,,,,,,,,,,,,,,,,,,,,,,,,,,,,,-73,-50,1,0,0,response5disk,5,163,7,10,1,0,0,rectangle,7,10,1,0,0,4,1,"[33,274,112,119,125,312,86,107,268,161,281,286,261,153,139,289,128,83,173,209]",7,10,1,0,0,0,0,0,156,1,,,,,,,,,,,,,,,,,,,,,,,
,,,,,,,,,,,,,,,,,,,,,,,,,,,,,,,,,,,,,,,,,,,5fbec16fce816f0d19f36f4c,5fe1928de6b281c3447853da,2020-12-22_06h30.53.883,FlowerSimilarity_Experiment,2020.1.2,Win32,60,5fe17d4a51f3a9c1a60f9869,,,,,,,,,,,,,,,,,,,9,PF,,4,2.40035,,,,,,,,,,,,,,,,,,,,,,,,,,,,,,,,,,33,-65,1,0,0,response3disk,7,164,2,4,1,0,0,rectangle,2,4,1,0,0,4,7,"[33,274,112,119,125,312,86,107,268,161,281,286,261,153,139,289,128,83,173,209]",2,4,1,0,0,0,1,1,121,1,,,,,,,,,,,,,,,,,,,,,,,
,,,,,,,,,,,,,,,,,,,,,,,,,,,,,,,,,,,,,,,,,,,5fbec16fce816f0d19f36f4c,5fe1928de6b281c3447853da,2020-12-22_06h30.53.883,FlowerSimilarity_Experiment,2020.1.2,Win32,60,5fe17d4a51f3a9c1a60f9869,,,,,,,,,,,,,,,,,,,1,FF,,3,2.267295,,,,,,,,,,,,,,,,,,,,,,,,,,,,,,,,,,-38,-58,1,0,0,response5disk,8,165,4,7,1,0,0,rectangle,4,7,1,0,0,4,6,"[33,274,112,119,125,312,86,107,268,161,281,286,261,153,139,289,128,83,173,209]",4,7,1,0,0,0,2,2,27,1,,,,,,,,,,,,,,,,,,,,,,,
,,,,,,,,,,,,,,,,,,,,,,,,,,,,,,,,,,,,,,,,,,,5fbec16fce816f0d19f36f4c,5fe1928de6b281c3447853da,2020-12-22_06h30.53.883,FlowerSimilarity_Experiment,2020.1.2,Win32,60,5fe17d4a51f3a9c1a60f9869,,,,,,,,,,,,,,,,,,,4,FF,,1,1.335335,,,,,,,,,,,,,,,,,,,,,,,,,,,,,,,,,,-95,47,1,0,0,response7disk,2,166,18,-4,1,0,0,rectangle,18,-4,1,0,0,4,3,"[33,274,112,119,125,312,86,107,268,161,281,286,261,153,139,289,128,83,173,209]",18,-4,1,0,0,0,3,3,13,1,,,,,,,,,,,,,,,,,,,,,,,
,,,,,,,,,,,,,,,,,,,,,,,,,,,,,,,,,,,,,,,,,,,5fbec16fce816f0d19f36f4c,5fe1928de6b281c3447853da,2020-12-22_06h30.53.883,FlowerSimilarity_Experiment,2020.1.2,Win32,60,5fe17d4a51f3a9c1a60f9869,,,,,,,,,,,,,,,,,,,3,PF,,1,1.58381,,,,,,,,,,,,,,,,,,,,,,,,,,,,,,,,,,-93,33,1,0,0,response7disk,3,167,-27,6,1,0,0,rectangle,-27,6,1,0,0,4,7,"[33,274,112,119,125,312,86,107,268,161,281,286,261,153,139,289,128,83,173,209]",-27,6,1,0,0,0,4,4,4,1,,,,,,,,,,,,,,,,,,,,,,,
,,,,,,,,,,,,,,,,,,,,,,,,,,,,,,,,,,,,,,,,,,,5fbec16fce816f0d19f36f4c,5fe1928de6b281c3447853da,2020-12-22_06h30.53.883,FlowerSimilarity_Experiment,2020.1.2,Win32,60,5fe17d4a51f3a9c1a60f9869,,,,,,,,,,,,,,,,,,,5,FF,,2,1.133745,,,,,,,,,,,,,,,,,,,,,,,,,,,,,,,,,,-98,-64,1,0,0,response5disk,3,168,7,13,1,0,0,rectangle,7,13,1,0,0,4,4,"[33,274,112,119,125,312,86,107,268,161,281,286,261,153,139,289,128,83,173,209]",7,13,1,0,0,0,5,5,25,1,,,,,,,,,,,,,,,,,,,,,,,
,,,,,,,,,,,,,,,,,,,,,,,,,,,,,,,,,,,,,,,,,,,5fbec16fce816f0d19f36f4c,5fe1928de6b281c3447853da,2020-12-22_06h30.53.883,FlowerSimilarity_Experiment,2020.1.2,Win32,60,5fe17d4a51f3a9c1a60f9869,,,,,,,,,,,,,,,,,,,8,PF,,5,1.63366,,,,,,,,,,,,,,,,,,,,,,,,,,,,,,,,,,67,-34,1,0,0,response3disk,4,169,5,-3,1,0,0,rectangle,5,-3,1,0,0,4,7,"[33,274,112,119,125,312,86,107,268,161,281,286,261,153,139,289,128,83,173,209]",5,-3,1,0,0,0,6,6,78,1,,,,,,,,,,,,,,,,,,,,,,,
,,,,,,,,,,,,,,,,,,,,,,,,,,,,,,,,,,,,,,,,,,,5fbec16fce816f0d19f36f4c,5fe1928de6b281c3447853da,2020-12-22_06h30.53.883,FlowerSimilarity_Experiment,2020.1.2,Win32,60,5fe17d4a51f3a9c1a60f9869,,,,,,,,,,,,,,,,,,,5,PF,,5,1.334045,,,,,,,,,,,,,,,,,,,,,,,,,,,,,,,,,,80,-44,1,0,0,response3disk,3,170,23,-9,1,0,0,rectangle,23,-9,1,0,0,4,7,"[33,274,112,119,125,312,86,107,268,161,281,286,261,153,139,289,128,83,173,209]",23,-9,1,0,0,0,7,7,109,1,,,,,,,,,,,,,,,,,,,,,,,
,,,,,,,,,,,,,,,,,,,,,,,,,,,,,,,,,,,,,,,,,,,5fbec16fce816f0d19f36f4c,5fe1928de6b281c3447853da,2020-12-22_06h30.53.883,FlowerSimilarity_Experiment,2020.1.2,Win32,60,5fe17d4a51f3a9c1a60f9869,,,,,,,,,,,,,,,,,,,7,FF,,4,1.600915,,,,,,,,,,,,,,,,,,,,,,,,,,,,,,,,,,63,-107,1,0,0,response3disk,8,171,18,-3,1,0,0,rectangle,18,-3,1,0,0,4,3,"[33,274,112,119,125,312,86,107,268,161,281,286,261,153,139,289,128,83,173,209]",18,-3,1,0,0,0,8,8,97,1,,,,,,,,,,,,,,,,,,,,,,,
,,,,,,,,,,,,,,,,,,,,,,,,,,,,,,,,,,,,,,,,,,,5fbec16fce816f0d19f36f4c,5fe1928de6b281c3447853da,2020-12-22_06h30.53.883,FlowerSimilarity_Experiment,2020.1.2,Win32,60,5fe17d4a51f3a9c1a60f9869,,,,,,,,,,,,,,,,,,,9,FF,,3,2.31731,,,,,,,,,,,,,,,,,,,,,,,,,,,,,,,,,,-36,-61,1,0,0,response5disk,6,172,-10,1,1,0,0,rectangle,-10,1,1,0,0,4,5,"[33,274,112,119,125,312,86,107,268,161,281,286,261,153,139,289,128,83,173,209]",-10,1,1,0,0,0,9,9,117,1,,,,,,,,,,,,,,,,,,,,,,,
,,,,,,,,,,,,,,,,,,,,,,,,,,,,,,,,,,,,,,,,,,,5fbec16fce816f0d19f36f4c,5fe1928de6b281c3447853da,2020-12-22_06h30.53.883,FlowerSimilarity_Experiment,2020.1.2,Win32,60,5fe17d4a51f3a9c1a60f9869,,,,,,,,,,,,,,,,,,,3,PF,,4,1.96664,,,,,,,,,,,,,,,,,,,,,,,,,,,,,,,,,,36,-58,1,0,0,response3disk,9,173,2,-1,1,0,0,rectangle,-83,47,1,0,0,1,1,"[33,274,112,119,125,312,86,107,268,161,281,286,261,153,139,289,128,83,173,209]",30,0,1,0,0,0,10,10,79,1,response7disk_3,rectangle,,,,,,,,,,,,,,,,,,,,,
,,,,,,,,,,,,,,,,,,,,,,,,,,,,,,,,,,,,,,,,,,,5fbec16fce816f0d19f36f4c,5fe1928de6b281c3447853da,2020-12-22_06h30.53.883,FlowerSimilarity_Experiment,2020.1.2,Win32,60,5fe17d4a51f3a9c1a60f9869,,,,,,,,,,,,,,,,,,,3,FF,,3,2.554665,,,,,,,,,,,,,,,,,,,,,,,,,,,,,,,,,,-32,-57,1,0,0,response5disk,1,174,-3,6,1,0,0,rectangle,-3,6,1,0,0,1,5,"[33,274,112,119,125,312,86,107,268,161,281,286,261,153,139,289,128,83,173,209]",-3,6,1,0,0,0,11,11,125,1,,,,,,,,,,,,,,,,,,,,,,,
,,,,,,,,,,,,,,,,,,,,,,,,,,,,,,,,,,,,,,,,,,,5fbec16fce816f0d19f36f4c,5fe1928de6b281c3447853da,2020-12-22_06h30.53.883,FlowerSimilarity_Experiment,2020.1.2,Win32,60,5fe17d4a51f3a9c1a60f9869,,,,,,,,,,,,,,,,,,,9,FF,,4,3.050025,,,,,,,,,,,,,,,,,,,,,,,,,,,,,,,,,,42,-53,1,0,0,response3disk,3,175,12,10,1,0,0,rectangle,12,10,1,0,0,1,4,"[33,274,112,119,125,312,86,107,268,161,281,286,261,153,139,289,128,83,173,209]",12,10,1,0,0,0,12,12,141,1,,,,,,,,,,,,,,,,,,,,,,,
,,,,,,,,,,,,,,,,,,,,,,,,,,,,,,,,,,,,,,,,,,,5fbec16fce816f0d19f36f4c,5fe1928de6b281c3447853da,2020-12-22_06h30.53.883,FlowerSimilarity_Experiment,2020.1.2,Win32,60,5fe17d4a51f3a9c1a60f9869,,,,,,,,,,,,,,,,,,,2,PF,,1,1.36945,,,,,,,,,,,,,,,,,,,,,,,,,,,,,,,,,,-68,35,1,0,0,response7disk,3,176,6,-5,1,0,0,rectangle,6,-5,1,0,0,1,6,"[33,274,112,119,125,312,86,107,268,161,281,286,261,153,139,289,128,83,173,209]",6,-5,1,0,0,0,13,13,69,1,,,,,,,,,,,,,,,,,,,,,,,
,,,,,,,,,,,,,,,,,,,,,,,,,,,,,,,,,,,,,,,,,,,5fbec16fce816f0d19f36f4c,5fe1928de6b281c3447853da,2020-12-22_06h30.53.883,FlowerSimilarity_Experiment,2020.1.2,Win32,60,5fe17d4a51f3a9c1a60f9869,,,,,,,,,,,,,,,,,,,8,FF,,4,1.7186,,,,,,,,,,,,,,,,,,,,,,,,,,,,,,,,,,69,-81,1,0,0,response3disk,4,177,5,-1,1,0,0,rectangle,5,-1,1,0,0,1,3,"[33,274,112,119,125,312,86,107,268,161,281,286,261,153,139,289,128,83,173,209]",5,-1,1,0,0,0,14,14,88,1,,,,,,,,,,,,,,,,,,,,,,,
,,,,,,,,,,,,,,,,,,,,,,,,,,,,,,,,,,,,,,,,,,,5fbec16fce816f0d19f36f4c,5fe1928de6b281c3447853da,2020-12-22_06h30.53.883,FlowerSimilarity_Experiment,2020.1.2,Win32,60,5fe17d4a51f3a9c1a60f9869,,,,,,,,,,,,,,,,,,,5,FF,,0,1.583785,,,,,,,,,,,,,,,,,,,,,,,,,,,,,,,,,,-59,82,1,0,0,response7disk,5,178,17,8,1,0,0,rectangle,17,8,1,0,0,1,3,"[33,274,112,119,125,312,86,107,268,161,281,286,261,153,139,289,128,83,173,209]",17,8,1,0,0,0,15,15,19,1,,,,,,,,,,,,,,,,,,,,,,,
,,,,,,,,,,,,,,,,,,,,,,,,,,,,,,,,,,,,,,,,,,,5fbec16fce816f0d19f36f4c,5fe1928de6b281c3447853da,2020-12-22_06h30.53.883,FlowerSimilarity_Experiment,2020.1.2,Win32,60,5fe17d4a51f3a9c1a60f9869,,,,,,,,,,,,,,,,,,,2,FF,,4,1.20275,,,,,,,,,,,,,,,,,,,,,,,,,,,,,,,,,,60,-77,1,0,0,response3disk,8,179,-1,-6,1,0,0,rectangle,-1,-6,1,0,0,1,3,"[33,274,112,119,125,312,86,107,268,161,281,286,261,153,139,289,128,83,173,209]",-1,-6,1,0,0,0,16,16,62,1,,,,,,,,,,,,,,,,,,,,,,,
,,,,,,,,,,,,,,,,,,,,,,,,,,,,,,,,,,,,,,,,,,,5fbec16fce816f0d19f36f4c,5fe1928de6b281c3447853da,2020-12-22_06h30.53.883,FlowerSimilarity_Experiment,2020.1.2,Win32,60,5fe17d4a51f3a9c1a60f9869,,,,,,,,,,,,,,,,,,,5,FF,,5,2.634085,,,,,,,,,,,,,,,,,,,,,,,,,,,,,,,,,,104,-70,1,0,0,response3disk,6,180,-3,13,1,0,0,rectangle,-3,13,1,0,0,1,6,"[33,274,112,119,125,312,86,107,268,161,281,286,261,153,139,289,128,83,173,209]",-3,13,1,0,0,0,17,17,12,1,,,,,,,,,,,,,,,,,,,,,,,
,,,,,,,,,,,,,,,,,,,,,,,,,,,,,,,,,,,,,,,,,,,5fbec16fce816f0d19f36f4c,5fe1928de6b281c3447853da,2020-12-22_06h30.53.883,FlowerSimilarity_Experiment,2020.1.2,Win32,60,5fe17d4a51f3a9c1a60f9869,,,,,,,,,,,,,,,,,,,8,FF,,3,2.385325,,,,,,,,,,,,,,,,,,,,,,,,,,,,,,,,,,-43,-76,1,0,0,response5disk,7,181,-3,3,1,0,0,rectangle,-3,3,1,0,0,1,7,"[33,274,112,119,125,312,86,107,268,161,281,286,261,153,139,289,128,83,173,209]",-3,3,1,0,0,0,18,18,86,1,,,,,,,,,,,,,,,,,,,,,,,
,,,,,,,,,,,,,,,,,,,,,,,,,,,,,,,,,,,,,,,,,,,5fbec16fce816f0d19f36f4c,5fe1928de6b281c3447853da,2020-12-22_06h30.53.883,FlowerSimilarity_Experiment,2020.1.2,Win32,60,5fe17d4a51f3a9c1a60f9869,,,,,,,,,,,,,,,,,,,5,FF,,3,2.31794,,,,,,,,,,,,,,,,,,,,,,,,,,,,,,,,,,-20,-69,1,0,0,response5disk,2,182,10,5,1,0,0,rectangle,10,5,1,0,0,1,7,"[33,274,112,119,125,312,86,107,268,161,281,286,261,153,139,289,128,83,173,209]",10,5,1,0,0,0,19,19,55,1,,,,,,,,,,,,,,,,,,,,,,,
,,,,,,,,,,,,,,,,,,,,,,,,,,,,,,,,,,,,,,,,,,,5fbec16fce816f0d19f36f4c,5fe1928de6b281c3447853da,2020-12-22_06h30.53.883,FlowerSimilarity_Experiment,2020.1.2,Win32,60,5fe17d4a51f3a9c1a60f9869,,,,,,,,,,,,,,,,,,,8,PF,,1,1.367875,,,,,,,,,,,,,,,,,,,,,,,,,,,,,,,,,,-101,65,1,0,0,response7disk,8,183,-14,9,1,0,0,rectangle,-14,9,1,0,0,1,7,"[33,274,112,119,125,312,86,107,268,161,281,286,261,153,139,289,128,83,173,209]",-14,9,1,0,0,0,20,20,153,1,,,,,,,,,,,,,,,,,,,,,,,
,,,,,,,,,,,,,,,,,,,,,,,,,,,,,,,,,,,,,,,,,,,5fbec16fce816f0d19f36f4c,5fe1928de6b281c3447853da,2020-12-22_06h30.53.883,FlowerSimilarity_Experiment,2020.1.2,Win32,60,5fe17d4a51f3a9c1a60f9869,,,,,,,,,,,,,,,,,,,2,PF,,1,1.65086,,,,,,,,,,,,,,,,,,,,,,,,,,,,,,,,,,-78,61,1,0,0,response7disk,7,184,7,-1,1,0,0,rectangle,7,-1,1,0,0,1,0,"[33,274,112,119,125,312,86,107,268,161,281,286,261,153,139,289,128,83,173,209]",7,-1,1,0,0,0,21,21,107,1,,,,,,,,,,,,,,,,,,,,,,,
,,,,,,,,,,,,,,,,,,,,,,,,,,,,,,,,,,,,,,,,,,,5fbec16fce816f0d19f36f4c,5fe1928de6b281c3447853da,2020-12-22_06h30.53.883,FlowerSimilarity_Experiment,2020.1.2,Win32,60,5fe17d4a51f3a9c1a60f9869,,,,,,,,,,,,,,,,,,,8,FF,,7,1.53503,,,,,,,,,,,,,,,,,,,,,,,,,,,,,,,,,,46,94,1,0,0,response1disk,1,185,2,5,1,0,0,rectangle,2,5,1,0,0,1,1,"[33,274,112,119,125,312,86,107,268,161,281,286,261,153,139,289,128,83,173,209]",2,5,1,0,0,0,22,22,20,1,,,,,,,,,,,,,,,,,,,,,,,
,,,,,,,,,,,,,,,,,,,,,,,,,,,,,,,,,,,,,,,,,,,5fbec16fce816f0d19f36f4c,5fe1928de6b281c3447853da,2020-12-22_06h30.53.883,FlowerSimilarity_Experiment,2020.1.2,Win32,60,5fe17d4a51f3a9c1a60f9869,,,,,,,,,,,,,,,,,,,2,PF,,4,1.76902,,,,,,,,,,,,,,,,,,,,,,,,,,,,,,,,,,40,-46,1,0,0,response3disk,1,186,8,3,1,0,0,rectangle,8,3,1,0,0,1,1,"[33,274,112,119,125,312,86,107,268,161,281,286,261,153,139,289,128,83,173,209]",8,3,1,0,0,0,23,23,9,1,,,,,,,,,,,,,,,,,,,,,,,
,,,,,,,,,,,,,,,,,,,,,,,,,,,,,,,,,,,,,,,,,,,5fbec16fce816f0d19f36f4c,5fe1928de6b281c3447853da,2020-12-22_06h30.53.883,FlowerSimilarity_Experiment,2020.1.2,Win32,60,5fe17d4a51f3a9c1a60f9869,,,,,,,,,,,,,,,,,,,5,FF,,5,2.55091,,,,,,,,,,,,,,,,,,,,,,,,,,,,,,,,,,102,-37,1,0,0,response3disk,4,187,16,14,1,0,0,rectangle,16,14,1,0,0,1,0,"[33,274,112,119,125,312,86,107,268,161,281,286,261,153,139,289,128,83,173,209]",16,14,1,0,0,0,24,24,8,1,,,,,,,,,,,,,,,,,,,,,,,
,,,,,,,,,,,,,,,,,,,,,,,,,,,,,,,,,,,,,,,,,,,5fbec16fce816f0d19f36f4c,5fe1928de6b281c3447853da,2020-12-22_06h30.53.883,FlowerSimilarity_Experiment,2020.1.2,Win32,60,5fe17d4a51f3a9c1a60f9869,,,,,,,,,,,,,,,,,,,3,FF,,1,1.586,,,,,,,,,,,,,,,,,,,,,,,,,,,,,,,,,,-110,33,1,0,0,response7disk,7,188,-9,8,1,0,0,rectangle,-9,8,1,0,0,1,0,"[33,274,112,119,125,312,86,107,268,161,281,286,261,153,139,289,128,83,173,209]",-9,8,1,0,0,0,25,25,118,1,,,,,,,,,,,,,,,,,,,,,,,
,,,,,,,,,,,,,,,,,,,,,,,,,,,,,,,,,,,,,,,,,,,5fbec16fce816f0d19f36f4c,5fe1928de6b281c3447853da,2020-12-22_06h30.53.883,FlowerSimilarity_Experiment,2020.1.2,Win32,60,5fe17d4a51f3a9c1a60f9869,,,,,,,,,,,,,,,,,,,7,FF,,2,2.007755,,,,,,,,,,,,,,,,,,,,,,,,,,,,,,,,,,-92,-43,1,0,0,response5disk,2,189,2,-6,1,0,0,rectangle,2,-6,1,0,0,1,5,"[33,274,112,119,125,312,86,107,268,161,281,286,261,153,139,289,128,83,173,209]",2,-6,1,0,0,0,26,26,138,1,,,,,,,,,,,,,,,,,,,,,,,
,,,,,,,,,,,,,,,,,,,,,,,,,,,,,,,,,,,,,,,,,,,5fbec16fce816f0d19f36f4c,5fe1928de6b281c3447853da,2020-12-22_06h30.53.883,FlowerSimilarity_Experiment,2020.1.2,Win32,60,5fe17d4a51f3a9c1a60f9869,,,,,,,,,,,,,,,,,,,4,PF,,2,1.786805,,,,,,,,,,,,,,,,,,,,,,,,,,,,,,,,,,-66,-32,1,0,0,response5disk,1,190,1,-1,1,0,0,rectangle,1,-1,1,0,0,1,1,"[33,274,112,119,125,312,86,107,268,161,281,286,261,153,139,289,128,83,173,209]",1,-1,1,0,0,0,27,27,115,1,,,,,,,,,,,,,,,,,,,,,,,
,,,,,,,,,,,,,,,,,,,,,,,,,,,,,,,,,,,,,,,,,,,5fbec16fce816f0d19f36f4c,5fe1928de6b281c3447853da,2020-12-22_06h30.53.883,FlowerSimilarity_Experiment,2020.1.2,Win32,60,5fe17d4a51f3a9c1a60f9869,,,,,,,,,,,,,,,,,,,1,PF,,3,3.2531,,,,,,,,,,,,,,,,,,,,,,,,,,,,,,,,,,-52,-74,1,0,0,response5disk,6,191,-2,-5,1,0,0,rectangle,-2,-5,1,0,0,1,5,"[33,274,112,119,125,312,86,107,268,161,281,286,261,153,139,289,128,83,173,209]",-2,-5,1,0,0,0,28,28,144,1,,,,,,,,,,,,,,,,,,,,,,,
,,,,,,,,,,,,,,,,,,,,,,,,,,,,,,,,,,,,,,,,,,,5fbec16fce816f0d19f36f4c,5fe1928de6b281c3447853da,2020-12-22_06h30.53.883,FlowerSimilarity_Experiment,2020.1.2,Win32,60,5fe17d4a51f3a9c1a60f9869,,,,,,,,,,,,,,,,,,,9,FF,,3,1.2183,,,,,,,,,,,,,,,,,,,,,,,,,,,,,,,,,,-66,-84,1,0,0,response5disk,1,192,6,-6,1,0,0,rectangle,6,-6,1,0,0,1,3,"[33,274,112,119,125,312,86,107,268,161,281,286,261,153,139,289,128,83,173,209]",6,-6,1,0,0,0,29,29,111,1,,,,,,,,,,,,,,,,,,,,,,,
,,,,,,,,,,,,,,,,,,,,,,,,,,,,,,,,,,,,,,,,,,,5fbec16fce816f0d19f36f4c,5fe1928de6b281c3447853da,2020-12-22_06h30.53.883,FlowerSimilarity_Experiment,2020.1.2,Win32,60,5fe17d4a51f3a9c1a60f9869,,,,,,,,,,,,,,,,,,,7,FF,,0,1.871725,,,,,,,,,,,,,,,,,,,,,,,,,,,,,,,,,,-56,80,1,0,0,response7disk,3,193,-7,12,1,0,0,rectangle,-7,12,1,0,0,1,6,"[33,274,112,119,125,312,86,107,268,161,281,286,261,153,139,289,128,83,173,209]",-7,12,1,0,0,0,30,30,73,1,,,,,,,,,,,,,,,,,,,,,,,
,,,,,,,,,,,,,,,,,,,,,,,,,,,,,,,,,,,,,,,,,,,5fbec16fce816f0d19f36f4c,5fe1928de6b281c3447853da,2020-12-22_06h30.53.883,FlowerSimilarity_Experiment,2020.1.2,Win32,60,5fe17d4a51f3a9c1a60f9869,,,,,,,,,,,,,,,,,,,3,FF,,3,1.78317,,,,,,,,,,,,,,,,,,,,,,,,,,,,,,,,,,-41,-83,1,0,0,response5disk,9,194,-2,-8,1,0,0,rectangle,-2,-8,1,0,0,1,0,"[33,274,112,119,125,312,86,107,268,161,281,286,261,153,139,289,128,83,173,209]",-2,-8,1,0,0,0,31,31,143,1,,,,,,,,,,,,,,,,,,,,,,,
,,,,,,,,,,,,,,,,,,,,,,,,,,,,,,,,,,,,,,,,,,,5fbec16fce816f0d19f36f4c,5fe1928de6b281c3447853da,2020-12-22_06h30.53.883,FlowerSimilarity_Experiment,2020.1.2,Win32,60,5fe17d4a51f3a9c1a60f9869,,,,,,,,,,,,,,,,,,,8,PF,,2,2.734855,,,,,,,,,,,,,,,,,,,,,,,,,,,,,,,,,,-94,-53,1,0,0,response5disk,3,195,-21,-2,1,0,0,rectangle,-21,-2,1,0,0,1,4,"[33,274,112,119,125,312,86,107,268,161,281,286,261,153,139,289,128,83,173,209]",-21,-2,1,0,0,0,32,32,71,1,,,,,,,,,,,,,,,,,,,,,,,
,,,,,,,,,,,,,,,,,,,,,,,,,,,,,,,,,,,,,,,,,,,5fbec16fce816f0d19f36f4c,5fe1928de6b281c3447853da,2020-12-22_06h30.53.883,FlowerSimilarity_Experiment,2020.1.2,Win32,60,5fe17d4a51f3a9c1a60f9869,,,,,,,,,,,,,,,,,,,4,PF,,4,1.55648,,,,,,,,,,,,,,,,,,,,,,,,,,,,,,,,,,20,-118,1,0,0,response3disk,5,196,-11,7,1,0,0,rectangle,-11,7,1,0,0,1,6,"[33,274,112,119,125,312,86,107,268,161,281,286,261,153,139,289,128,83,173,209]",-11,7,1,0,0,0,33,33,49,1,,,,,,,,,,,,,,,,,,,,,,,
,,,,,,,,,,,,,,,,,,,,,,,,,,,,,,,,,,,,,,,,,,,5fbec16fce816f0d19f36f4c,5fe1928de6b281c3447853da,2020-12-22_06h30.53.883,FlowerSimilarity_Experiment,2020.1.2,Win32,60,5fe17d4a51f3a9c1a60f9869,,,,,,,,,,,,,,,,,,,8,FF,,4,3.30246,,,,,,,,,,,,,,,,,,,,,,,,,,,,,,,,,,55,-70,1,0,0,response3disk,6,197,-24,11,1,0,0,rectangle,-24,11,1,0,0,1,1,"[33,274,112,119,125,312,86,107,268,161,281,286,261,153,139,289,128,83,173,209]",-24,11,1,0,0,0,34,34,37,1,,,,,,,,,,,,,,,,,,,,,,,
,,,,,,,,,,,,,,,,,,,,,,,,,,,,,,,,,,,,,,,,,,,5fbec16fce816f0d19f36f4c,5fe1928de6b281c3447853da,2020-12-22_06h30.53.883,FlowerSimilarity_Experiment,2020.1.2,Win32,60,5fe17d4a51f3a9c1a60f9869,,,,,,,,,,,,,,,,,,,5,PF,,4,3.761895,,,,,,,,,,,,,,,,,,,,,,,,,,,,,,,,,,44,-77,1,0,0,response3disk,4,198,11,-12,1,0,0,rectangle,11,-12,1,0,0,1,4,"[33,274,112,119,125,312,86,107,268,161,281,286,261,153,139,289,128,83,173,209]",11,-12,1,0,0,0,35,35,54,1,,,,,,,,,,,,,,,,,,,,,,,
,,,,,,,,,,,,,,,,,,,,,,,,,,,,,,,,,,,,,,,,,,,5fbec16fce816f0d19f36f4c,5fe1928de6b281c3447853da,2020-12-22_06h30.53.883,FlowerSimilarity_Experiment,2020.1.2,Win32,60,5fe17d4a51f3a9c1a60f9869,,,,,,,,,,,,,,,,,,,1,FF,,3,2.383905,,,,,,,,,,,,,,,,,,,,,,,,,,,,,,,,,,-25,-70,1,0,0,response5disk,4,199,7,-2,1,0,0,rectangle,7,-2,1,0,0,1,0,"[33,274,112,119,125,312,86,107,268,161,281,286,261,153,139,289,128,83,173,209]",7,-2,1,0,0,0,36,36,135,1,,,,,,,,,,,,,,,,,,,,,,,
,,,,,,,,,,,,,,,,,,,,,,,,,,,,,,,,,,,,,,,,,,,5fbec16fce816f0d19f36f4c,5fe1928de6b281c3447853da,2020-12-22_06h30.53.883,FlowerSimilarity_Experiment,2020.1.2,Win32,60,5fe17d4a51f3a9c1a60f9869,,,,,,,,,,,,,,,,,,,7,PF,,3,1.888415,,,,,,,,,,,,,,,,,,,,,,,,,,,,,,,,,,-53,-100,1,0,0,response5disk,9,200,-2,-5,1,0,0,rectangle,-2,-5,1,0,0,1,0,"[33,274,112,119,125,312,86,107,268,161,281,286,261,153,139,289,128,83,173,209]",-2,-5,1,0,0,0,37,37,10,1,,,,,,,,,,,,,,,,,,,,,,,
,,,,,,,,,,,,,,,,,,,,,,,,,,,,,,,,,,,,,,,,,,,5fbec16fce816f0d19f36f4c,5fe1928de6b281c3447853da,2020-12-22_06h30.53.883,FlowerSimilarity_Experiment,2020.1.2,Win32,60,5fe17d4a51f3a9c1a60f9869,,,,,,,,,,,,,,,,,,,4,FF,,4,1.35292,,,,,,,,,,,,,,,,,,,,,,,,,,,,,,,,,,61,-79,1,0,0,response3disk,5,201,6,6,1,0,0,rectangle,6,6,1,0,0,1,4,"[33,274,112,119,125,312,86,107,268,161,281,286,261,153,139,289,128,83,173,209]",6,6,1,0,0,0,38,38,116,1,,,,,,,,,,,,,,,,,,,,,,,
,,,,,,,,,,,,,,,,,,,,,,,,,,,,,,,,,,,,,,,,,,,5fbec16fce816f0d19f36f4c,5fe1928de6b281c3447853da,2020-12-22_06h30.53.883,FlowerSimilarity_Experiment,2020.1.2,Win32,60,5fe17d4a51f3a9c1a60f9869,,,,,,,,,,,,,,,,,,,2,FF,,2,2.519615,,,,,,,,,,,,,,,,,,,,,,,,,,,,,,,,,,-83,-24,1,0,0,response5disk,9,202,-9,-7,1,0,0,rectangle,-9,-7,1,0,0,1,0,"[33,274,112,119,125,312,86,107,268,161,281,286,261,153,139,289,128,83,173,209]",-9,-7,1,0,0,0,39,39,72,1,,,,,,,,,,,,,,,,,,,,,,,
,,,,,,,,,,,,,,,,,,,,,,,,,,,,,,,,,,,,,,,,,,,5fbec16fce816f0d19f36f4c,5fe1928de6b281c3447853da,2020-12-22_06h30.53.883,FlowerSimilarity_Experiment,2020.1.2,Win32,60,5fe17d4a51f3a9c1a60f9869,,,,,,,,,,,,,,,,,,,5,PF,,0,1.490105,,,,,,,,,,,,,,,,,,,,,,,,,,,,,,,,,,-48,81,1,0,0,response7disk,5,203,4,2,1,0,0,rectangle,4,2,1,0,0,1,3,"[33,274,112,119,125,312,86,107,268,161,281,286,261,153,139,289,128,83,173,209]",4,2,1,0,0,0,40,40,94,1,,,,,,,,,,,,,,,,,,,,,,,
