key_resp.keys,key_resp.rt,key_resp_16.keys,key_resp_16.rt,key_resp_2.keys,key_resp_2.rt,X Scale,ratio_pxpermm,screen_size_x,screen_size_y,testsize,key_resp_3.keys,key_resp_3.rt,key_resp_4.keys,key_resp_4.rt,line_size,key_resp_5.keys,key_resp_5.rt,key_resp_6.keys,key_resp_6.rt,key_resp_8.keys,key_resp_8.rt,key_resp_7.keys,key_resp_7.rt,key_resp_12.keys,key_resp_12.rt,key_resp_11.keys,key_resp_11.rt,key_resp_18.keys,key_resp_18.rt,key_resp_21.keys,key_resp_21.rt,key_resp_13.keys,key_resp_13.rt,key_resp_19.keys,key_resp_19.rt,ballposx,viewer_distance,trials.thisRepN,trials.thisTrialN,trials.thisN,trials.thisIndex,trials.ran,participant,session,date,expName,psychopyVersion,OS,frameRate,study_id,viewerdistancecm,DVA_to_distance,radius_F,radius_P,r_F,R_P,key_resp_20.keys,key_resp_20.rt,key_resp_14.keys,key_resp_14.rt,key_resp_15.keys,key_resp_15.rt,key_resp_17.keys,key_resp_17.rt,key_resp_9.keys,key_resp_9.rt,key_resp_10.keys,key_resp_10.rt,Flower1,Ecc,Flower_2,similarity,response_time,mouse_5.x,mouse_5.y,mouse_5.leftButton,mouse_5.midButton,mouse_5.rightButton,mouse_5.clicked_name,mouse_10.x,mouse_10.y,mouse_10.leftButton,mouse_10.midButton,mouse_10.rightButton,mouse_10.clicked_name,mouse_7.x,mouse_7.y,mouse_7.leftButton,mouse_7.midButton,mouse_7.rightButton,catchnumberprac,mouse_6.x,mouse_6.y,mouse_6.leftButton,mouse_6.midButton,mouse_6.rightButton,duringprac.thisRepN,duringprac.thisTrialN,duringprac.thisN,duringprac.thisIndex,duringprac.ran,mouse_7.clicked_name,catchprac,mouse_6.clicked_name,key_resp_22.keys,key_resp_22.rt,mouse.x,mouse.y,mouse.leftButton,mouse.midButton,mouse.rightButton,mouse.clicked_name,Flower2,trialnumber,mouse_2.x,mouse_2.y,mouse_2.leftButton,mouse_2.midButton,mouse_2.rightButton,mouse_2.clicked_name,mouse_3.x,mouse_3.y,mouse_3.leftButton,mouse_3.midButton,mouse_3.rightButton,catchresponse,catchnumber,catchtrialorder,mouse_11.x,mouse_11.y,mouse_11.leftButton,mouse_11.midButton,mouse_11.rightButton,trials_2.thisRepN,trials_2.thisTrialN,trials_2.thisN,trials_2.thisIndex,trials_2.ran,mouse_3.clicked_name,mouse_11.clicked_name,trials_3.thisRepN,trials_3.thisTrialN,trials_3.thisN,trials_3.thisIndex,trials_3.ran,answer1,rt1,answer2,rt2,answer3,rt3,answer4,rt4,answer5,rt5,answer6,rt6,answer8,rt8,answer7,rt7
space,4.153855,space,244.638745,space,16.35528,32.3,3.23,338.6996904,190.4024768,1094,space,46.16555,space,13.82821,64.6,space,18.913085,space,7.15115,space,2.08357,space,17.239225,space,11.98834,space,55.021105,space,11.77225,space,15.86277,space,18.26602,return,3.630265,52.512,496.5967657,0,0,0,0,1,5fd0189eb30e9306837dc340,5fe192008929f0c3944d60f5,2020-12-22_00h29.17.449,FlowerSimilarity_Experiment,2020.1.2,Win32,60,5fe17d4a51f3a9c1a60f9869,,,,,,,,,,,,,,,,,,,,,,,,,,,,,,,,,,,,,,,,,,,,,,,,,,,,,,,,,,,,,,,,,,,,,,,,,,,,,,,,,,,,,,,,,,,,,,,,,,,,,,,,,,,,,,,
,,,,,,,,,,,,,,,,,,,,,,,,,,,,,,,,,,return,17.213445,57.435,490.2482275,1,0,1,0,1,5fd0189eb30e9306837dc340,5fe192008929f0c3944d60f5,2020-12-22_00h29.17.449,FlowerSimilarity_Experiment,2020.1.2,Win32,60,5fe17d4a51f3a9c1a60f9869,,,,,,,,,,,,,,,,,,,,,,,,,,,,,,,,,,,,,,,,,,,,,,,,,,,,,,,,,,,,,,,,,,,,,,,,,,,,,,,,,,,,,,,,,,,,,,,,,,,,,,,,,,,,,,,
,,,,,,,,,,,,,,,,,,,,,,,,,,,,,,,,,,return,3.581815,55.794,492.3644069,2,0,2,0,1,5fd0189eb30e9306837dc340,5fe192008929f0c3944d60f5,2020-12-22_00h29.17.449,FlowerSimilarity_Experiment,2020.1.2,Win32,60,5fe17d4a51f3a9c1a60f9869,,,,,,,,,,,,,,,,,,,,,,,,,,,,,,,,,,,,,,,,,,,,,,,,,,,,,,,,,,,,,,,,,,,,,,,,,,,,,,,,,,,,,,,,,,,,,,,,,,,,,,,,,,,,,,,
,,,,,,,,,,,,,,,,,,,,,,,,,,,,,,,,,,return,3.57113,57.435,490.2482275,3,0,3,0,1,5fd0189eb30e9306837dc340,5fe192008929f0c3944d60f5,2020-12-22_00h29.17.449,FlowerSimilarity_Experiment,2020.1.2,Win32,60,5fe17d4a51f3a9c1a60f9869,,,,,,,,,,,,,,,,,,,,,,,,,,,,,,,,,,,,,,,,,,,,,,,,,,,,,,,,,,,,,,,,,,,,,,,,,,,,,,,,,,,,,,,,,,,,,,,,,,,,,,,,,,,,,,,
,,,,,,,,,,,,,,,,,,,,,,,,,,,,,,,,,,return,4.068175,22.974,534.6879949,4,0,4,0,1,5fd0189eb30e9306837dc340,5fe192008929f0c3944d60f5,2020-12-22_00h29.17.449,FlowerSimilarity_Experiment,2020.1.2,Win32,60,5fe17d4a51f3a9c1a60f9869,,,,,,,,,,,,,,,,,,,,,,,,,,,,,,,,,,,,,,,,,,,,,,,,,,,,,,,,,,,,,,,,,,,,,,,,,,,,,,,,,,,,,,,,,,,,,,,,,,,,,,,,,,,,,,,
,,,,,,,,,,,,,,,,,,,,,,,,,,,,,,,,,,,,,,,,,,,5fd0189eb30e9306837dc340,5fe192008929f0c3944d60f5,2020-12-22_00h29.17.449,FlowerSimilarity_Experiment,2020.1.2,Win32,60,5fe17d4a51f3a9c1a60f9869,50,8.727529343,42.28487967,281.8991978,28.18991978,126.854639,space,5.095165,space,12.252325,space,27.3569,space,8.615245,space,22.800165,space,7.23925,2,FF,9,7,34.367865,32.20000863,68.29999644,1,0,0,response1disk_5,-1.399943042,7.49999553,1,0,0,rectangle_8,-1.399943042,7.49999553,1,0,0,0,-1.399943042,7.49999553,1,0,0,0,0,0,5,1,,,,,,,,,,,,,,,,,,,,,,,,,,,,,,,,,,,,,,,,,,,,,,,,,,,,,,,,,,,,
,,,,,,,,,,,,,,,,,,,,,,,,,,,,,,,,,,,,,,,,,,,5fd0189eb30e9306837dc340,5fe192008929f0c3944d60f5,2020-12-22_00h29.17.449,FlowerSimilarity_Experiment,2020.1.2,Win32,60,5fe17d4a51f3a9c1a60f9869,,,,,,,,,,,,,,,,,,,3,PF,4,7,14.6884,30.60005744,78.69999659,1,0,0,response1disk_5,-3.799991906,1.099995434,1,0,0,rectangle_8,-34.99999237,70.69999647,1,0,0,0,-10.99999201,4.299995482,1,0,0,0,1,1,1,1,response7disk_7,0,rectangle_4,,,,,,,,,,,,,,,,,,,,,,,,,,,,,,,,,,,,,,,,,,,,,,,,,,,,,,,,,
,,,,,,,,,,,,,,,,,,,,,,,,,,,,,,,,,,,,,,,,,,,5fd0189eb30e9306837dc340,5fe192008929f0c3944d60f5,2020-12-22_00h29.17.449,FlowerSimilarity_Experiment,2020.1.2,Win32,60,5fe17d4a51f3a9c1a60f9869,,,,,,,,,,,,,,,,,,,8,FF,1,7,4.959215,21.80000848,74.69999653,1,0,0,response1disk_5,5.800008237,-1.300029016,1,0,0,rectangle_8,5.800008237,-1.300029016,1,0,0,0,5.800008237,-1.300029016,1,0,0,0,2,2,0,1,,,,,,,,,,,,,,,,,,,,,,,,,,,,,,,,,,,,,,,,,,,,,,,,,,,,,,,,,,,,
,,,,,,,,,,,,,,,,,,,,,,,,,,,,,,,,,,,,,,,,,,,5fd0189eb30e9306837dc340,5fe192008929f0c3944d60f5,2020-12-22_00h29.17.449,FlowerSimilarity_Experiment,2020.1.2,Win32,60,5fe17d4a51f3a9c1a60f9869,,,,,,,,,,,,,,,,,,,3,PF,2,5,9.16589,59.40000904,-32.50000507,1,0,0,response3disk_5,-3.799991906,-6.900004685,1,0,0,rectangle_8,-3.799991906,-6.900004685,1,0,0,0,-3.799991906,-6.900004685,1,0,0,0,3,3,2,1,,,,,,,,,,,,,,,,,,,,,,,,,,,,,,,,,,,,,,,,,,,,,,,,,,,,,,,,,,,,
,,,,,,,,,,,,,,,,,,,,,,,,,,,,,,,,,,,,,,,,,,,5fd0189eb30e9306837dc340,5fe192008929f0c3944d60f5,2020-12-22_00h29.17.449,FlowerSimilarity_Experiment,2020.1.2,Win32,60,5fe17d4a51f3a9c1a60f9869,,,,,,,,,,,,,,,,,,,6,PF,1,3,5.70386,-39.79999244,-73.30003009,1,0,0,response5disk_5,-10.199992,7.49999553,1,0,0,rectangle_8,-38.19999242,79.4999966,1,0,0,0,-7.799991965,3.49999547,1,0,0,0,4,4,4,1,response7disk_7,0,rectangle_4,,,,,,,,,,,,,,,,,,,,,,,,,,,,,,,,,,,,,,,,,,,,,,,,,,,,,,,,,
,,,,,,,,,,,,,,,,,,,,,,,,,,,,,,,,,,,,,,,,,,,5fd0189eb30e9306837dc340,5fe192008929f0c3944d60f5,2020-12-22_00h29.17.449,FlowerSimilarity_Experiment,2020.1.2,Win32,60,5fe17d4a51f3a9c1a60f9869,,,,,,,,,,,,,,,,,,,3,FF,5,4,4.15616,30.60005744,-72.50000566,1,0,0,response3disk_5,-6.999991953,1.899995446,1,0,0,rectangle_8,-6.999991953,1.899995446,1,0,0,0,-6.999991953,1.899995446,1,0,0,0,5,5,3,1,,,,,,,,,,,,,,,,,,,,,,,,,,,,,,,,,,,,,,,,,,,,,,,,,,,,,,,,,,,,
,,,,,,,,,,,,,,,,,,,,,,,,,,,,,,,,,,,,,,,,,,,5fd0189eb30e9306837dc340,5fe192008929f0c3944d60f5,2020-12-22_00h29.17.449,FlowerSimilarity_Experiment,2020.1.2,Win32,60,5fe17d4a51f3a9c1a60f9869,,,,,,,,,,,,,,,,,,,8,PF,6,7,2.14119,27.40000856,59.4999963,1,0,0,response1disk_5,-5.399943101,0.299995422,1,0,0,rectangle_8,-5.399943101,0.299995422,1,0,0,0,-5.399943101,0.299995422,1,0,0,0,6,6,6,1,,,,,,,,,,,,,,,,,,,,,,,,,,,,,,,,,,,,,,,,,,,,,,,,,,,,,,,,,,,,
,,,,,,,,,,,,,,,,,,,,,,,,,,,,,,,,,,,,,,,,,,,5fd0189eb30e9306837dc340,5fe192008929f0c3944d60f5,2020-12-22_00h29.17.449,FlowerSimilarity_Experiment,2020.1.2,Win32,60,5fe17d4a51f3a9c1a60f9869,,,,,,,,,,,,,,,,,,,3,PF,,7,4.726625,,,,,,,,,,,,,,,,,,,,,,,,,,,,,,,,space,7.177005,45.80000883,77.09999657,1,0,0,response1disk,2,1,-5.399943101,1.099995434,1,0,0,rectangle,-5.399943101,1.099995434,1,0,0,,4,"[287,127,99,139,210,112,64,117,202,245,50,5,121,4,210,125,323,210,177,80]",-5.399943101,1.099995434,1,0,0,0,0,0,36,1,,,,,,,,,,,,,,,,,,,,,,,
,,,,,,,,,,,,,,,,,,,,,,,,,,,,,,,,,,,,,,,,,,,5fd0189eb30e9306837dc340,5fe192008929f0c3944d60f5,2020-12-22_00h29.17.449,FlowerSimilarity_Experiment,2020.1.2,Win32,60,5fe17d4a51f3a9c1a60f9869,,,,,,,,,,,,,,,,,,,4,FF,,7,3.902565,,,,,,,,,,,,,,,,,,,,,,,,,,,,,,,,,,32.20000863,60.29999632,1,0,0,response1disk,1,2,-6.999991953,5.099995494,1,0,0,rectangle,-6.999991953,5.099995494,1,0,0,,5,"[287,127,99,139,210,112,64,117,202,245,50,5,121,4,210,125,323,210,177,80]",-6.999991953,5.099995494,1,0,0,0,1,1,102,1,,,,,,,,,,,,,,,,,,,,,,,
,,,,,,,,,,,,,,,,,,,,,,,,,,,,,,,,,,,,,,,,,,,5fd0189eb30e9306837dc340,5fe192008929f0c3944d60f5,2020-12-22_00h29.17.449,FlowerSimilarity_Experiment,2020.1.2,Win32,60,5fe17d4a51f3a9c1a60f9869,,,,,,,,,,,,,,,,,,,6,PF,,2,4.35126,,,,,,,,,,,,,,,,,,,,,,,,,,,,,,,,,,-84.59999311,-41.30002961,1,0,0,response5disk,1,3,-2.199991882,-1.300029016,1,0,0,rectangle,-2.199991882,-1.300029016,1,0,0,,5,"[287,127,99,139,210,112,64,117,202,245,50,5,121,4,210,125,323,210,177,80]",-2.199991882,-1.300029016,1,0,0,0,2,2,46,1,,,,,,,,,,,,,,,,,,,,,,,
,,,,,,,,,,,,,,,,,,,,,,,,,,,,,,,,,,,,,,,,,,,5fd0189eb30e9306837dc340,5fe192008929f0c3944d60f5,2020-12-22_00h29.17.449,FlowerSimilarity_Experiment,2020.1.2,Win32,60,5fe17d4a51f3a9c1a60f9869,,,,,,,,,,,,,,,,,,,2,PF,,7,2.573175,,,,,,,,,,,,,,,,,,,,,,,,,,,,,,,,,,35.40000868,85.8999967,1,0,0,response1disk,6,4,-2.999991894,4.299995482,1,0,0,rectangle,41.00000876,69.09999645,1,0,0,7,7,"[287,127,99,139,210,112,64,117,202,245,50,5,121,4,210,125,323,210,177,80]",-6.999991953,1.099995434,1,0,0,0,3,3,113,1,response1disk_3,rectangle,,,,,,,,,,,,,,,,,,,,,
,,,,,,,,,,,,,,,,,,,,,,,,,,,,,,,,,,,,,,,,,,,5fd0189eb30e9306837dc340,5fe192008929f0c3944d60f5,2020-12-22_00h29.17.449,FlowerSimilarity_Experiment,2020.1.2,Win32,60,5fe17d4a51f3a9c1a60f9869,,,,,,,,,,,,,,,,,,,3,PF,,0,4.48257,,,,,,,,,,,,,,,,,,,,,,,,,,,,,,,,,,-38.99999243,87.49999672,1,0,0,response7disk,3,5,-7.799991965,-0.50000459,1,0,0,rectangle,-64.59999281,-22.90000492,1,0,0,7,2,"[287,127,99,139,210,112,64,117,202,245,50,5,121,4,210,125,323,210,177,80]",-5.399943101,-0.50000459,1,0,0,0,4,4,4,1,response5disk_3,rectangle,,,,,,,,,,,,,,,,,,,,,
,,,,,,,,,,,,,,,,,,,,,,,,,,,,,,,,,,,,,,,,,,,5fd0189eb30e9306837dc340,5fe192008929f0c3944d60f5,2020-12-22_00h29.17.449,FlowerSimilarity_Experiment,2020.1.2,Win32,60,5fe17d4a51f3a9c1a60f9869,,,,,,,,,,,,,,,,,,,7,PF,,0,2.796115,,,,,,,,,,,,,,,,,,,,,,,,,,,,,,,,,,-54.19999266,78.69999659,1,0,0,response7disk,7,6,-4.599991918,-1.300029016,1,0,0,rectangle,-4.599991918,-1.300029016,1,0,0,7,5,"[287,127,99,139,210,112,64,117,202,245,50,5,121,4,210,125,323,210,177,80]",-4.599991918,-1.300029016,1,0,0,0,5,5,51,1,,,,,,,,,,,,,,,,,,,,,,,
,,,,,,,,,,,,,,,,,,,,,,,,,,,,,,,,,,,,,,,,,,,5fd0189eb30e9306837dc340,5fe192008929f0c3944d60f5,2020-12-22_00h29.17.449,FlowerSimilarity_Experiment,2020.1.2,Win32,60,5fe17d4a51f3a9c1a60f9869,,,,,,,,,,,,,,,,,,,3,FF,,6,2.292185,,,,,,,,,,,,,,,,,,,,,,,,,,,,,,,,,,58.60005785,29.89999586,1,0,0,response1disk,6,7,-3.799991906,-2.100004613,1,0,0,rectangle,-3.799991906,-2.100004613,1,0,0,7,0,"[287,127,99,139,210,112,64,117,202,245,50,5,121,4,210,125,323,210,177,80]",-3.799991906,-2.100004613,1,0,0,0,6,6,95,1,,,,,,,,,,,,,,,,,,,,,,,
,,,,,,,,,,,,,,,,,,,,,,,,,,,,,,,,,,,,,,,,,,,5fd0189eb30e9306837dc340,5fe192008929f0c3944d60f5,2020-12-22_00h29.17.449,FlowerSimilarity_Experiment,2020.1.2,Win32,60,5fe17d4a51f3a9c1a60f9869,,,,,,,,,,,,,,,,,,,5,PF,,2,3.466675,,,,,,,,,,,,,,,,,,,,,,,,,,,,,,,,,,-70.99999291,-18.90000486,1,0,0,response5disk,8,8,-6.999991953,-0.50000459,1,0,0,rectangle,-6.999991953,-0.50000459,1,0,0,7,5,"[287,127,99,139,210,112,64,117,202,245,50,5,121,4,210,125,323,210,177,80]",-6.999991953,-0.50000459,1,0,0,0,7,7,149,1,,,,,,,,,,,,,,,,,,,,,,,
,,,,,,,,,,,,,,,,,,,,,,,,,,,,,,,,,,,,,,,,,,,5fd0189eb30e9306837dc340,5fe192008929f0c3944d60f5,2020-12-22_00h29.17.449,FlowerSimilarity_Experiment,2020.1.2,Win32,60,5fe17d4a51f3a9c1a60f9869,,,,,,,,,,,,,,,,,,,6,PF,,4,4.24826,,,,,,,,,,,,,,,,,,,,,,,,,,,,,,,,,,33.80000865,-60.50000548,1,0,0,response3disk,9,9,-0.599991858,8.299995542,1,0,0,rectangle,-0.599991858,8.299995542,1,0,0,7,3,"[287,127,99,139,210,112,64,117,202,245,50,5,121,4,210,125,323,210,177,80]",-0.599991858,8.299995542,1,0,0,0,8,8,45,1,,,,,,,,,,,,,,,,,,,,,,,
,,,,,,,,,,,,,,,,,,,,,,,,,,,,,,,,,,,,,,,,,,,5fd0189eb30e9306837dc340,5fe192008929f0c3944d60f5,2020-12-22_00h29.17.449,FlowerSimilarity_Experiment,2020.1.2,Win32,60,5fe17d4a51f3a9c1a60f9869,,,,,,,,,,,,,,,,,,,5,PF,,6,5.03394,,,,,,,,,,,,,,,,,,,,,,,,,,,,,,,,,,67.40000916,51.49999619,1,0,0,response1disk,3,10,4.200008214,1.899995446,1,0,0,rectangle,4.200008214,1.899995446,1,0,0,7,2,"[287,127,99,139,210,112,64,117,202,245,50,5,121,4,210,125,323,210,177,80]",4.200008214,1.899995446,1,0,0,0,9,9,109,1,,,,,,,,,,,,,,,,,,,,,,,
,,,,,,,,,,,,,,,,,,,,,,,,,,,,,,,,,,,,,,,,,,,5fd0189eb30e9306837dc340,5fe192008929f0c3944d60f5,2020-12-22_00h29.17.449,FlowerSimilarity_Experiment,2020.1.2,Win32,60,5fe17d4a51f3a9c1a60f9869,,,,,,,,,,,,,,,,,,,1,PF,,2,2.596,,,,,,,,,,,,,,,,,,,,,,,,,,,,,,,,,,-69.39999288,-23.70000494,1,0,0,response5disk,9,11,1.000008166,1.099995434,1,0,0,rectangle,1.000008166,1.099995434,1,0,0,7,5,"[287,127,99,139,210,112,64,117,202,245,50,5,121,4,210,125,323,210,177,80]",1.000008166,1.099995434,1,0,0,0,10,10,15,1,,,,,,,,,,,,,,,,,,,,,,,
,,,,,,,,,,,,,,,,,,,,,,,,,,,,,,,,,,,,,,,,,,,5fd0189eb30e9306837dc340,5fe192008929f0c3944d60f5,2020-12-22_00h29.17.449,FlowerSimilarity_Experiment,2020.1.2,Win32,60,5fe17d4a51f3a9c1a60f9869,,,,,,,,,,,,,,,,,,,9,FF,,0,1.988465,,,,,,,,,,,,,,,,,,,,,,,,,,,,,,,,,,-46.19999254,82.69999665,1,0,0,response7disk,9,12,3.400008202,4.299995482,1,0,0,rectangle,3.400008202,4.299995482,1,0,0,7,3,"[287,127,99,139,210,112,64,117,202,245,50,5,121,4,210,125,323,210,177,80]",3.400008202,4.299995482,1,0,0,0,11,11,17,1,,,,,,,,,,,,,,,,,,,,,,,
,,,,,,,,,,,,,,,,,,,,,,,,,,,,,,,,,,,,,,,,,,,5fd0189eb30e9306837dc340,5fe192008929f0c3944d60f5,2020-12-22_00h29.17.449,FlowerSimilarity_Experiment,2020.1.2,Win32,60,5fe17d4a51f3a9c1a60f9869,,,,,,,,,,,,,,,,,,,9,FF,,6,1.92909,,,,,,,,,,,,,,,,,,,,,,,,,,,,,,,,,,59.40000904,49.89999616,1,0,0,response1disk,7,13,-0.599991858,9.899995565,1,0,0,rectangle,-0.599991858,9.899995565,1,0,0,7,2,"[287,127,99,139,210,112,64,117,202,245,50,5,121,4,210,125,323,210,177,80]",-0.599991858,9.899995565,1,0,0,0,12,12,100,1,,,,,,,,,,,,,,,,,,,,,,,
,,,,,,,,,,,,,,,,,,,,,,,,,,,,,,,,,,,,,,,,,,,5fd0189eb30e9306837dc340,5fe192008929f0c3944d60f5,2020-12-22_00h29.17.449,FlowerSimilarity_Experiment,2020.1.2,Win32,60,5fe17d4a51f3a9c1a60f9869,,,,,,,,,,,,,,,,,,,6,PF,,7,1.753895,,,,,,,,,,,,,,,,,,,,,,,,,,,,,,,,,,25.00000852,69.89999646,1,0,0,response1disk,4,14,5.000008225,3.49999547,1,0,0,rectangle,5.000008225,3.49999547,1,0,0,7,4,"[287,127,99,139,210,112,64,117,202,245,50,5,121,4,210,125,323,210,177,80]",5.000008225,3.49999547,1,0,0,0,13,13,33,1,,,,,,,,,,,,,,,,,,,,,,,
,,,,,,,,,,,,,,,,,,,,,,,,,,,,,,,,,,,,,,,,,,,5fd0189eb30e9306837dc340,5fe192008929f0c3944d60f5,2020-12-22_00h29.17.449,FlowerSimilarity_Experiment,2020.1.2,Win32,60,5fe17d4a51f3a9c1a60f9869,,,,,,,,,,,,,,,,,,,9,PF,,3,3.23048,,,,,,,,,,,,,,,,,,,,,,,,,,,,,,,,,,-31.79999232,-69.30003003,1,0,0,response5disk,6,15,4.200008214,-0.50000459,1,0,0,rectangle,4.200008214,-0.50000459,1,0,0,7,5,"[287,127,99,139,210,112,64,117,202,245,50,5,121,4,210,125,323,210,177,80]",4.200008214,-0.50000459,1,0,0,0,14,14,148,1,,,,,,,,,,,,,,,,,,,,,,,
,,,,,,,,,,,,,,,,,,,,,,,,,,,,,,,,,,,,,,,,,,,5fd0189eb30e9306837dc340,5fe192008929f0c3944d60f5,2020-12-22_00h29.17.449,FlowerSimilarity_Experiment,2020.1.2,Win32,60,5fe17d4a51f3a9c1a60f9869,,,,,,,,,,,,,,,,,,,6,PF,,7,1.440565,,,,,,,,,,,,,,,,,,,,,,,,,,,,,,,,,,37.0000087,84.29999667,1,0,0,response1disk,8,16,2.600057018,4.299995482,1,0,0,rectangle,2.600057018,4.299995482,1,0,0,7,4,"[287,127,99,139,210,112,64,117,202,245,50,5,121,4,210,125,323,210,177,80]",2.600057018,4.299995482,1,0,0,0,15,15,64,1,,,,,,,,,,,,,,,,,,,,,,,
,,,,,,,,,,,,,,,,,,,,,,,,,,,,,,,,,,,,,,,,,,,5fd0189eb30e9306837dc340,5fe192008929f0c3944d60f5,2020-12-22_00h29.17.449,FlowerSimilarity_Experiment,2020.1.2,Win32,60,5fe17d4a51f3a9c1a60f9869,,,,,,,,,,,,,,,,,,,3,FF,,7,1.242085,,,,,,,,,,,,,,,,,,,,,,,,,,,,,,,,,,22.60005732,58.69999629,1,0,0,response1disk,1,17,1.000008166,6.699971104,1,0,0,rectangle,1.000008166,6.699971104,1,0,0,7,2,"[287,127,99,139,210,112,64,117,202,245,50,5,121,4,210,125,323,210,177,80]",1.000008166,6.699971104,1,0,0,0,16,16,125,1,,,,,,,,,,,,,,,,,,,,,,,
,,,,,,,,,,,,,,,,,,,,,,,,,,,,,,,,,,,,,,,,,,,5fd0189eb30e9306837dc340,5fe192008929f0c3944d60f5,2020-12-22_00h29.17.449,FlowerSimilarity_Experiment,2020.1.2,Win32,60,5fe17d4a51f3a9c1a60f9869,,,,,,,,,,,,,,,,,,,8,FF,,7,1.42932,,,,,,,,,,,,,,,,,,,,,,,,,,,,,,,,,,28.20000857,75.49999654,1,0,0,response1disk,4,18,-1.399943042,9.899995565,1,0,0,rectangle,-1.399943042,9.899995565,1,0,0,7,0,"[287,127,99,139,210,112,64,117,202,245,50,5,121,4,210,125,323,210,177,80]",-1.399943042,9.899995565,1,0,0,0,17,17,88,1,,,,,,,,,,,,,,,,,,,,,,,
,,,,,,,,,,,,,,,,,,,,,,,,,,,,,,,,,,,,,,,,,,,5fd0189eb30e9306837dc340,5fe192008929f0c3944d60f5,2020-12-22_00h29.17.449,FlowerSimilarity_Experiment,2020.1.2,Win32,60,5fe17d4a51f3a9c1a60f9869,,,,,,,,,,,,,,,,,,,5,PF,,4,3.783125,,,,,,,,,,,,,,,,,,,,,,,,,,,,,,,,,,44.20000881,-70.10000563,1,0,0,response3disk,7,19,-6.199991941,0.299995422,1,0,0,rectangle,-6.199991941,0.299995422,1,0,0,7,0,"[287,127,99,139,210,112,64,117,202,245,50,5,121,4,210,125,323,210,177,80]",-6.199991941,0.299995422,1,0,0,0,18,18,146,1,,,,,,,,,,,,,,,,,,,,,,,
,,,,,,,,,,,,,,,,,,,,,,,,,,,,,,,,,,,,,,,,,,,5fd0189eb30e9306837dc340,5fe192008929f0c3944d60f5,2020-12-22_00h29.17.449,FlowerSimilarity_Experiment,2020.1.2,Win32,60,5fe17d4a51f3a9c1a60f9869,,,,,,,,,,,,,,,,,,,9,FF,,7,1.54987,,,,,,,,,,,,,,,,,,,,,,,,,,,,,,,,,,40.20000875,85.8999967,1,0,0,response1disk,2,20,-0.599991858,6.699971104,1,0,0,rectangle,-0.599991858,6.699971104,1,0,0,7,2,"[287,127,99,139,210,112,64,117,202,245,50,5,121,4,210,125,323,210,177,80]",-0.599991858,6.699971104,1,0,0,0,19,19,11,1,,,,,,,,,,,,,,,,,,,,,,,
,,,,,,,,,,,,,,,,,,,,,,,,,,,,,,,,,,,,,,,,,,,5fd0189eb30e9306837dc340,5fe192008929f0c3944d60f5,2020-12-22_00h29.17.449,FlowerSimilarity_Experiment,2020.1.2,Win32,60,5fe17d4a51f3a9c1a60f9869,,,,,,,,,,,,,,,,,,,5,FF,,0,1.811825,,,,,,,,,,,,,,,,,,,,,,,,,,,,,,,,,,-34.19999236,81.89999664,1,0,0,response7disk,5,21,4.200008214,1.099995434,1,0,0,rectangle,4.200008214,1.099995434,1,0,0,7,7,"[287,127,99,139,210,112,64,117,202,245,50,5,121,4,210,125,323,210,177,80]",4.200008214,1.099995434,1,0,0,0,20,20,19,1,,,,,,,,,,,,,,,,,,,,,,,
,,,,,,,,,,,,,,,,,,,,,,,,,,,,,,,,,,,,,,,,,,,5fd0189eb30e9306837dc340,5fe192008929f0c3944d60f5,2020-12-22_00h29.17.449,FlowerSimilarity_Experiment,2020.1.2,Win32,60,5fe17d4a51f3a9c1a60f9869,,,,,,,,,,,,,,,,,,,5,PF,,7,1.775405,,,,,,,,,,,,,,,,,,,,,,,,,,,,,,,,,,53.00000894,80.29999661,1,0,0,response1disk,1,22,-6.999991953,9.099995553,1,0,0,rectangle,-6.999991953,9.099995553,1,0,0,7,2,"[287,127,99,139,210,112,64,117,202,245,50,5,121,4,210,125,323,210,177,80]",-6.999991953,9.099995553,1,0,0,0,21,21,159,1,,,,,,,,,,,,,,,,,,,,,,,
,,,,,,,,,,,,,,,,,,,,,,,,,,,,,,,,,,,,,,,,,,,5fd0189eb30e9306837dc340,5fe192008929f0c3944d60f5,2020-12-22_00h29.17.449,FlowerSimilarity_Experiment,2020.1.2,Win32,60,5fe17d4a51f3a9c1a60f9869,,,,,,,,,,,,,,,,,,,9,FF,,7,1.99682,,,,,,,,,,,,,,,,,,,,,,,,,,,,,,,,,,36.20000869,73.09999651,1,0,0,response1disk,5,23,1.800008178,-2.100004613,1,0,0,rectangle,1.800008178,-2.100004613,1,0,0,7,4,"[287,127,99,139,210,112,64,117,202,245,50,5,121,4,210,125,323,210,177,80]",1.800008178,-2.100004613,1,0,0,0,22,22,128,1,,,,,,,,,,,,,,,,,,,,,,,
,,,,,,,,,,,,,,,,,,,,,,,,,,,,,,,,,,,,,,,,,,,5fd0189eb30e9306837dc340,5fe192008929f0c3944d60f5,2020-12-22_00h29.17.449,FlowerSimilarity_Experiment,2020.1.2,Win32,60,5fe17d4a51f3a9c1a60f9869,,,,,,,,,,,,,,,,,,,9,PF,,7,6.362495,,,,,,,,,,,,,,,,,,,,,,,,,,,,,,,,,,41.80000877,83.49999666,1,0,0,response1disk,4,24,-6.199991941,-4.500004649,1,0,0,rectangle,-6.199991941,-4.500004649,1,0,0,7,4,"[287,127,99,139,210,112,64,117,202,245,50,5,121,4,210,125,323,210,177,80]",-6.199991941,-4.500004649,1,0,0,0,23,23,114,1,,,,,,,,,,,,,,,,,,,,,,,
,,,,,,,,,,,,,,,,,,,,,,,,,,,,,,,,,,,,,,,,,,,5fd0189eb30e9306837dc340,5fe192008929f0c3944d60f5,2020-12-22_00h29.17.449,FlowerSimilarity_Experiment,2020.1.2,Win32,60,5fe17d4a51f3a9c1a60f9869,,,,,,,,,,,,,,,,,,,7,PF,,7,1.55657,,,,,,,,,,,,,,,,,,,,,,,,,,,,,,,,,,51.40000892,69.89999646,1,0,0,response1disk,5,25,-4.599991918,-0.50000459,1,0,0,rectangle,-4.599991918,-0.50000459,1,0,0,7,7,"[287,127,99,139,210,112,64,117,202,245,50,5,121,4,210,125,323,210,177,80]",-4.599991918,-0.50000459,1,0,0,0,24,24,92,1,,,,,,,,,,,,,,,,,,,,,,,
,,,,,,,,,,,,,,,,,,,,,,,,,,,,,,,,,,,,,,,,,,,5fd0189eb30e9306837dc340,5fe192008929f0c3944d60f5,2020-12-22_00h29.17.449,FlowerSimilarity_Experiment,2020.1.2,Win32,60,5fe17d4a51f3a9c1a60f9869,,,,,,,,,,,,,,,,,,,9,PF,,0,1.817305,,,,,,,,,,,,,,,,,,,,,,,,,,,,,,,,,,-53.39999264,70.69999647,1,0,0,response7disk,9,26,1.000008166,3.49999547,1,0,0,rectangle,1.000008166,3.49999547,1,0,0,7,2,"[287,127,99,139,210,112,64,117,202,245,50,5,121,4,210,125,323,210,177,80]",1.000008166,3.49999547,1,0,0,0,25,25,106,1,,,,,,,,,,,,,,,,,,,,,,,
,,,,,,,,,,,,,,,,,,,,,,,,,,,,,,,,,,,,,,,,,,,5fd0189eb30e9306837dc340,5fe192008929f0c3944d60f5,2020-12-22_00h29.17.449,FlowerSimilarity_Experiment,2020.1.2,Win32,60,5fe17d4a51f3a9c1a60f9869,,,,,,,,,,,,,,,,,,,9,PF,,7,2.20055,,,,,,,,,,,,,,,,,,,,,,,,,,,,,,,,,,29.80000859,77.09999657,1,0,0,response1disk,7,27,-13.39994322,1.899995446,1,0,0,rectangle,-13.39994322,1.899995446,1,0,0,7,1,"[287,127,99,139,210,112,64,117,202,245,50,5,121,4,210,125,323,210,177,80]",-13.39994322,1.899995446,1,0,0,0,26,26,121,1,,,,,,,,,,,,,,,,,,,,,,,
,,,,,,,,,,,,,,,,,,,,,,,,,,,,,,,,,,,,,,,,,,,5fd0189eb30e9306837dc340,5fe192008929f0c3944d60f5,2020-12-22_00h29.17.449,FlowerSimilarity_Experiment,2020.1.2,Win32,60,5fe17d4a51f3a9c1a60f9869,,,,,,,,,,,,,,,,,,,1,FF,,7,1.68917,,,,,,,,,,,,,,,,,,,,,,,,,,,,,,,,,,26.60005738,63.49999636,1,0,0,response1disk,7,28,-6.199991941,1.099995434,1,0,0,rectangle,-6.199991941,1.099995434,1,0,0,7,2,"[287,127,99,139,210,112,64,117,202,245,50,5,121,4,210,125,323,210,177,80]",-6.199991941,1.099995434,1,0,0,0,27,27,137,1,,,,,,,,,,,,,,,,,,,,,,,
,,,,,,,,,,,,,,,,,,,,,,,,,,,,,,,,,,,,,,,,,,,5fd0189eb30e9306837dc340,5fe192008929f0c3944d60f5,2020-12-22_00h29.17.449,FlowerSimilarity_Experiment,2020.1.2,Win32,60,5fe17d4a51f3a9c1a60f9869,,,,,,,,,,,,,,,,,,,7,PF,,4,3.209855,,,,,,,,,,,,,,,,,,,,,,,,,,,,,,,,,,33.00000864,-76.50000572,1,0,0,response3disk,4,29,-11.79999202,2.699971044,1,0,0,rectangle,-11.79999202,2.699971044,1,0,0,7,5,"[287,127,99,139,210,112,64,117,202,245,50,5,121,4,210,125,323,210,177,80]",-11.79999202,2.699971044,1,0,0,0,28,28,43,1,,,,,,,,,,,,,,,,,,,,,,,
,,,,,,,,,,,,,,,,,,,,,,,,,,,,,,,,,,,,,,,,,,,5fd0189eb30e9306837dc340,5fe192008929f0c3944d60f5,2020-12-22_00h29.17.449,FlowerSimilarity_Experiment,2020.1.2,Win32,60,5fe17d4a51f3a9c1a60f9869,,,,,,,,,,,,,,,,,,,6,FF,,0,1.693475,,,,,,,,,,,,,,,,,,,,,,,,,,,,,,,,,,-39.79999244,62.69999635,1,0,0,response7disk,6,30,-5.399943101,-1.300029016,1,0,0,rectangle,-5.399943101,-1.300029016,1,0,0,7,6,"[287,127,99,139,210,112,64,117,202,245,50,5,121,4,210,125,323,210,177,80]",-5.399943101,-1.300029016,1,0,0,0,29,29,91,1,,,,,,,,,,,,,,,,,,,,,,,
,,,,,,,,,,,,,,,,,,,,,,,,,,,,,,,,,,,,,,,,,,,5fd0189eb30e9306837dc340,5fe192008929f0c3944d60f5,2020-12-22_00h29.17.449,FlowerSimilarity_Experiment,2020.1.2,Win32,60,5fe17d4a51f3a9c1a60f9869,,,,,,,,,,,,,,,,,,,7,PF,,6,4.155495,,,,,,,,,,,,,,,,,,,,,,,,,,,,,,,,,,64.20000911,58.69999629,1,0,0,response1disk,2,31,-8.599991977,-1.300029016,1,0,0,rectangle,-8.599991977,-1.300029016,1,0,0,7,1,"[287,127,99,139,210,112,64,117,202,245,50,5,121,4,210,125,323,210,177,80]",-8.599991977,-1.300029016,1,0,0,0,30,30,32,1,,,,,,,,,,,,,,,,,,,,,,,
,,,,,,,,,,,,,,,,,,,,,,,,,,,,,,,,,,,,,,,,,,,5fd0189eb30e9306837dc340,5fe192008929f0c3944d60f5,2020-12-22_00h29.17.449,FlowerSimilarity_Experiment,2020.1.2,Win32,60,5fe17d4a51f3a9c1a60f9869,,,,,,,,,,,,,,,,,,,2,FF,,0,1.663055,,,,,,,,,,,,,,,,,,,,,,,,,,,,,,,,,,-34.19999236,61.89999634,1,0,0,response7disk,2,32,-10.99999201,0.299995422,1,0,0,rectangle,-10.99999201,0.299995422,1,0,0,7,1,"[287,127,99,139,210,112,64,117,202,245,50,5,121,4,210,125,323,210,177,80]",-10.99999201,0.299995422,1,0,0,0,31,31,142,1,,,,,,,,,,,,,,,,,,,,,,,
,,,,,,,,,,,,,,,,,,,,,,,,,,,,,,,,,,,,,,,,,,,5fd0189eb30e9306837dc340,5fe192008929f0c3944d60f5,2020-12-22_00h29.17.449,FlowerSimilarity_Experiment,2020.1.2,Win32,60,5fe17d4a51f3a9c1a60f9869,,,,,,,,,,,,,,,,,,,1,PF,,7,2.459875,,,,,,,,,,,,,,,,,,,,,,,,,,,,,,,,,,33.00000864,61.09999633,1,0,0,response1disk,7,33,-12.59999204,0.299995422,1,0,0,rectangle,-12.59999204,0.299995422,1,0,0,7,7,"[287,127,99,139,210,112,64,117,202,245,50,5,121,4,210,125,323,210,177,80]",-12.59999204,0.299995422,1,0,0,0,32,32,150,1,,,,,,,,,,,,,,,,,,,,,,,
,,,,,,,,,,,,,,,,,,,,,,,,,,,,,,,,,,,,,,,,,,,5fd0189eb30e9306837dc340,5fe192008929f0c3944d60f5,2020-12-22_00h29.17.449,FlowerSimilarity_Experiment,2020.1.2,Win32,60,5fe17d4a51f3a9c1a60f9869,,,,,,,,,,,,,,,,,,,8,PF,,7,2.61544,,,,,,,,,,,,,,,,,,,,,,,,,,,,,,,,,,34.60005749,90.69999677,1,0,0,response1disk,7,34,-2.199991882,-0.50000459,1,0,0,rectangle,-2.199991882,-0.50000459,1,0,0,7,7,"[287,127,99,139,210,112,64,117,202,245,50,5,121,4,210,125,323,210,177,80]",-2.199991882,-0.50000459,1,0,0,0,33,33,23,1,,,,,,,,,,,,,,,,,,,,,,,
,,,,,,,,,,,,,,,,,,,,,,,,,,,,,,,,,,,,,,,,,,,5fd0189eb30e9306837dc340,5fe192008929f0c3944d60f5,2020-12-22_00h29.17.449,FlowerSimilarity_Experiment,2020.1.2,Win32,60,5fe17d4a51f3a9c1a60f9869,,,,,,,,,,,,,,,,,,,6,FF,,6,3.131185,,,,,,,,,,,,,,,,,,,,,,,,,,,,,,,,,,65.00000912,28.29999584,1,0,0,response1disk,8,35,-8.599991977,1.099995434,1,0,0,rectangle,-8.599991977,1.099995434,1,0,0,7,3,"[287,127,99,139,210,112,64,117,202,245,50,5,121,4,210,125,323,210,177,80]",-8.599991977,1.099995434,1,0,0,0,34,34,133,1,,,,,,,,,,,,,,,,,,,,,,,
,,,,,,,,,,,,,,,,,,,,,,,,,,,,,,,,,,,,,,,,,,,5fd0189eb30e9306837dc340,5fe192008929f0c3944d60f5,2020-12-22_00h29.17.449,FlowerSimilarity_Experiment,2020.1.2,Win32,60,5fe17d4a51f3a9c1a60f9869,,,,,,,,,,,,,,,,,,,8,PF,,6,1.684975,,,,,,,,,,,,,,,,,,,,,,,,,,,,,,,,,,63.4000091,36.29999596,1,0,0,response1disk,6,36,-14.99999207,-7.700004697,1,0,0,rectangle,-14.99999207,-7.700004697,1,0,0,7,6,"[287,127,99,139,210,112,64,117,202,245,50,5,121,4,210,125,323,210,177,80]",-14.99999207,-7.700004697,1,0,0,0,35,35,161,1,,,,,,,,,,,,,,,,,,,,,,,
,,,,,,,,,,,,,,,,,,,,,,,,,,,,,,,,,,,,,,,,,,,5fd0189eb30e9306837dc340,5fe192008929f0c3944d60f5,2020-12-22_00h29.17.449,FlowerSimilarity_Experiment,2020.1.2,Win32,60,5fe17d4a51f3a9c1a60f9869,,,,,,,,,,,,,,,,,,,5,FF,,6,1.8076,,,,,,,,,,,,,,,,,,,,,,,,,,,,,,,,,,77.0000093,41.89999604,1,0,0,response1disk,7,37,-2.199991882,-2.900004625,1,0,0,rectangle,-2.199991882,-2.900004625,1,0,0,7,0,"[287,127,99,139,210,112,64,117,202,245,50,5,121,4,210,125,323,210,177,80]",-2.199991882,-2.900004625,1,0,0,0,36,36,7,1,,,,,,,,,,,,,,,,,,,,,,,
,,,,,,,,,,,,,,,,,,,,,,,,,,,,,,,,,,,,,,,,,,,5fd0189eb30e9306837dc340,5fe192008929f0c3944d60f5,2020-12-22_00h29.17.449,FlowerSimilarity_Experiment,2020.1.2,Win32,60,5fe17d4a51f3a9c1a60f9869,,,,,,,,,,,,,,,,,,,2,FF,,7,1.809015,,,,,,,,,,,,,,,,,,,,,,,,,,,,,,,,,,28.20000857,80.29999661,1,0,0,response1disk,9,38,-8.599991977,1.099995434,1,0,0,rectangle,-8.599991977,1.099995434,1,0,0,7,7,"[287,127,99,139,210,112,64,117,202,245,50,5,121,4,210,125,323,210,177,80]",-8.599991977,1.099995434,1,0,0,0,37,37,72,1,,,,,,,,,,,,,,,,,,,,,,,
,,,,,,,,,,,,,,,,,,,,,,,,,,,,,,,,,,,,,,,,,,,5fd0189eb30e9306837dc340,5fe192008929f0c3944d60f5,2020-12-22_00h29.17.449,FlowerSimilarity_Experiment,2020.1.2,Win32,60,5fe17d4a51f3a9c1a60f9869,,,,,,,,,,,,,,,,,,,5,FF,,7,4.350825,,,,,,,,,,,,,,,,,,,,,,,,,,,,,,,,,,34.60005749,48.29999614,1,0,0,response1disk,2,39,0.200008154,-6.100004673,1,0,0,rectangle,0.200008154,-6.100004673,1,0,0,7,0,"[287,127,99,139,210,112,64,117,202,245,50,5,121,4,210,125,323,210,177,80]",0.200008154,-6.100004673,1,0,0,0,38,38,55,1,,,,,,,,,,,,,,,,,,,,,,,
,,,,,,,,,,,,,,,,,,,,,,,,,,,,,,,,,,,,,,,,,,,5fd0189eb30e9306837dc340,5fe192008929f0c3944d60f5,2020-12-22_00h29.17.449,FlowerSimilarity_Experiment,2020.1.2,Win32,60,5fe17d4a51f3a9c1a60f9869,,,,,,,,,,,,,,,,,,,4,PF,,7,2.189195,,,,,,,,,,,,,,,,,,,,,,,,,,,,,,,,,,33.00000864,85.8999967,1,0,0,response1disk,1,40,-6.999991953,0.299995422,1,0,0,rectangle,-6.999991953,0.299995422,1,0,0,7,6,"[287,127,99,139,210,112,64,117,202,245,50,5,121,4,210,125,323,210,177,80]",-6.999991953,0.299995422,1,0,0,0,39,39,115,1,,,,,,,,,,,,,,,,,,,,,,,
,,,,,,,,,,,,,,,,,,,,,,,,,,,,,,,,,,,,,,,,,,,5fd0189eb30e9306837dc340,5fe192008929f0c3944d60f5,2020-12-22_00h29.17.449,FlowerSimilarity_Experiment,2020.1.2,Win32,60,5fe17d4a51f3a9c1a60f9869,,,,,,,,,,,,,,,,,,,3,FF,,7,1.46506,,,,,,,,,,,,,,,,,,,,,,,,,,,,,,,,,,20.20000845,68.29999644,1,0,0,response1disk,9,41,-10.99999201,-2.100004613,1,0,0,rectangle,-10.99999201,-2.100004613,1,0,0,7,2,"[287,127,99,139,210,112,64,117,202,245,50,5,121,4,210,125,323,210,177,80]",-10.99999201,-2.100004613,1,0,0,0,40,40,143,1,,,,,,,,,,,,,,,,,,,,,,,
,,,,,,,,,,,,,,,,,,,,,,,,,,,,,,,,,,,,,,,,,,,5fd0189eb30e9306837dc340,5fe192008929f0c3944d60f5,2020-12-22_00h29.17.449,FlowerSimilarity_Experiment,2020.1.2,Win32,60,5fe17d4a51f3a9c1a60f9869,,,,,,,,,,,,,,,,,,,8,PF,,6,2.54577,,,,,,,,,,,,,,,,,,,,,,,,,,,,,,,,,,74.60005809,40.29999602,1,0,0,response1disk,3,42,1.800008178,1.099995434,1,0,0,rectangle,1.800008178,1.099995434,1,0,0,7,3,"[287,127,99,139,210,112,64,117,202,245,50,5,121,4,210,125,323,210,177,80]",1.800008178,1.099995434,1,0,0,0,41,41,71,1,,,,,,,,,,,,,,,,,,,,,,,
,,,,,,,,,,,,,,,,,,,,,,,,,,,,,,,,,,,,,,,,,,,5fd0189eb30e9306837dc340,5fe192008929f0c3944d60f5,2020-12-22_00h29.17.449,FlowerSimilarity_Experiment,2020.1.2,Win32,60,5fe17d4a51f3a9c1a60f9869,,,,,,,,,,,,,,,,,,,4,FF,,0,1.367145,,,,,,,,,,,,,,,,,,,,,,,,,,,,,,,,,,-42.19999248,77.09999657,1,0,0,response7disk,4,43,-4.599991918,1.099995434,1,0,0,rectangle,-4.599991918,1.099995434,1,0,0,7,0,"[287,127,99,139,210,112,64,117,202,245,50,5,121,4,210,125,323,210,177,80]",-4.599991918,1.099995434,1,0,0,0,42,42,84,1,,,,,,,,,,,,,,,,,,,,,,,
,,,,,,,,,,,,,,,,,,,,,,,,,,,,,,,,,,,,,,,,,,,5fd0189eb30e9306837dc340,5fe192008929f0c3944d60f5,2020-12-22_00h29.17.449,FlowerSimilarity_Experiment,2020.1.2,Win32,60,5fe17d4a51f3a9c1a60f9869,,,,,,,,,,,,,,,,,,,1,FF,,7,1.789665,,,,,,,,,,,,,,,,,,,,,,,,,,,,,,,,,,44.20000881,69.89999646,1,0,0,response1disk,4,44,-5.399943101,-3.700004637,1,0,0,rectangle,-5.399943101,-3.700004637,1,0,0,7,6,"[287,127,99,139,210,112,64,117,202,245,50,5,121,4,210,125,323,210,177,80]",-5.399943101,-3.700004637,1,0,0,0,43,43,135,1,,,,,,,,,,,,,,,,,,,,,,,
,,,,,,,,,,,,,,,,,,,,,,,,,,,,,,,,,,,,,,,,,,,5fd0189eb30e9306837dc340,5fe192008929f0c3944d60f5,2020-12-22_00h29.17.449,FlowerSimilarity_Experiment,2020.1.2,Win32,60,5fe17d4a51f3a9c1a60f9869,,,,,,,,,,,,,,,,,,,4,FF,,3,3.571905,,,,,,,,,,,,,,,,,,,,,,,,,,,,,,,,,,-45.39999253,-58.90000546,1,0,0,response5disk,7,45,3.400008202,-1.300029016,1,0,0,rectangle,3.400008202,-1.300029016,1,0,0,7,1,"[287,127,99,139,210,112,64,117,202,245,50,5,121,4,210,125,323,210,177,80]",3.400008202,-1.300029016,1,0,0,0,44,44,87,1,,,,,,,,,,,,,,,,,,,,,,,
,,,,,,,,,,,,,,,,,,,,,,,,,,,,,,,,,,,,,,,,,,,5fd0189eb30e9306837dc340,5fe192008929f0c3944d60f5,2020-12-22_00h29.17.449,FlowerSimilarity_Experiment,2020.1.2,Win32,60,5fe17d4a51f3a9c1a60f9869,,,,,,,,,,,,,,,,,,,2,FF,,6,1.844105,,,,,,,,,,,,,,,,,,,,,,,,,,,,,,,,,,58.60005785,26.6999714,1,0,0,response1disk,3,46,-2.999991894,3.49999547,1,0,0,rectangle,-2.999991894,3.49999547,1,0,0,7,1,"[287,127,99,139,210,112,64,117,202,245,50,5,121,4,210,125,323,210,177,80]",-2.999991894,3.49999547,1,0,0,0,45,45,104,1,,,,,,,,,,,,,,,,,,,,,,,
,,,,,,,,,,,,,,,,,,,,,,,,,,,,,,,,,,,,,,,,,,,5fd0189eb30e9306837dc340,5fe192008929f0c3944d60f5,2020-12-22_00h29.17.449,FlowerSimilarity_Experiment,2020.1.2,Win32,60,5fe17d4a51f3a9c1a60f9869,,,,,,,,,,,,,,,,,,,8,PF,,7,2.02526,,,,,,,,,,,,,,,,,,,,,,,,,,,,,,,,,,31.40000862,66.69999641,1,0,0,response1disk,2,47,-11.79999202,0.299995422,1,0,0,rectangle,-11.79999202,0.299995422,1,0,0,7,2,"[287,127,99,139,210,112,64,117,202,245,50,5,121,4,210,125,323,210,177,80]",-11.79999202,0.299995422,1,0,0,0,46,46,83,1,,,,,,,,,,,,,,,,,,,,,,,
,,,,,,,,,,,,,,,,,,,,,,,,,,,,,,,,,,,,,,,,,,,5fd0189eb30e9306837dc340,5fe192008929f0c3944d60f5,2020-12-22_00h29.17.449,FlowerSimilarity_Experiment,2020.1.2,Win32,60,5fe17d4a51f3a9c1a60f9869,,,,,,,,,,,,,,,,,,,1,PF,,5,3.112445,,,,,,,,,,,,,,,,,,,,,,,,,,,,,,,,,,64.20000911,-38.90000516,1,0,0,response3disk,6,48,-0.599991858,4.299995482,1,0,0,rectangle,-0.599991858,4.299995482,1,0,0,7,1,"[287,127,99,139,210,112,64,117,202,245,50,5,121,4,210,125,323,210,177,80]",-0.599991858,4.299995482,1,0,0,0,47,47,144,1,,,,,,,,,,,,,,,,,,,,,,,
,,,,,,,,,,,,,,,,,,,,,,,,,,,,,,,,,,,,,,,,,,,5fd0189eb30e9306837dc340,5fe192008929f0c3944d60f5,2020-12-22_00h29.17.449,FlowerSimilarity_Experiment,2020.1.2,Win32,60,5fe17d4a51f3a9c1a60f9869,,,,,,,,,,,,,,,,,,,5,PF,,7,1.999775,,,,,,,,,,,,,,,,,,,,,,,,,,,,,,,,,,25.80000854,73.09999651,1,0,0,response1disk,9,49,-9.399943161,-2.900004625,1,0,0,rectangle,-9.399943161,-2.900004625,1,0,0,7,2,"[287,127,99,139,210,112,64,117,202,245,50,5,121,4,210,125,323,210,177,80]",-9.399943161,-2.900004625,1,0,0,0,48,48,136,1,,,,,,,,,,,,,,,,,,,,,,,
,,,,,,,,,,,,,,,,,,,,,,,,,,,,,,,,,,,,,,,,,,,5fd0189eb30e9306837dc340,5fe192008929f0c3944d60f5,2020-12-22_00h29.17.449,FlowerSimilarity_Experiment,2020.1.2,Win32,60,5fe17d4a51f3a9c1a60f9869,,,,,,,,,,,,,,,,,,,3,PF,,6,3.167135,,,,,,,,,,,,,,,,,,,,,,,,,,,,,,,,,,68.20000917,45.09999609,1,0,0,response1disk,8,50,1.800008178,-0.50000459,1,0,0,rectangle,57.000009,-30.90000504,1,0,0,5,5,"[287,127,99,139,210,112,64,117,202,245,50,5,121,4,210,125,323,210,177,80]",-10.199992,-6.900004685,1,0,0,0,49,49,3,1,response3disk_3,rectangle,,,,,,,,,,,,,,,,,,,,,
,,,,,,,,,,,,,,,,,,,,,,,,,,,,,,,,,,,,,,,,,,,5fd0189eb30e9306837dc340,5fe192008929f0c3944d60f5,2020-12-22_00h29.17.449,FlowerSimilarity_Experiment,2020.1.2,Win32,60,5fe17d4a51f3a9c1a60f9869,,,,,,,,,,,,,,,,,,,7,FF,,7,1.823675,,,,,,,,,,,,,,,,,,,,,,,,,,,,,,,,,,32.20000863,74.69999653,1,0,0,response1disk,6,51,-11.79999202,-7.700004697,1,0,0,rectangle,-11.79999202,-7.700004697,1,0,0,5,2,"[287,127,99,139,210,112,64,117,202,245,50,5,121,4,210,125,323,210,177,80]",-11.79999202,-7.700004697,1,0,0,0,50,50,31,1,,,,,,,,,,,,,,,,,,,,,,,
,,,,,,,,,,,,,,,,,,,,,,,,,,,,,,,,,,,,,,,,,,,5fd0189eb30e9306837dc340,5fe192008929f0c3944d60f5,2020-12-22_00h29.17.449,FlowerSimilarity_Experiment,2020.1.2,Win32,60,5fe17d4a51f3a9c1a60f9869,,,,,,,,,,,,,,,,,,,2,FF,,6,2.223115,,,,,,,,,,,,,,,,,,,,,,,,,,,,,,,,,,70.60005803,36.29999596,1,0,0,response1disk,7,52,-10.199992,5.899995506,1,0,0,rectangle,-10.199992,5.899995506,1,0,0,5,1,"[287,127,99,139,210,112,64,117,202,245,50,5,121,4,210,125,323,210,177,80]",-10.199992,5.899995506,1,0,0,0,51,51,63,1,,,,,,,,,,,,,,,,,,,,,,,
,,,,,,,,,,,,,,,,,,,,,,,,,,,,,,,,,,,,,,,,,,,5fd0189eb30e9306837dc340,5fe192008929f0c3944d60f5,2020-12-22_00h29.17.449,FlowerSimilarity_Experiment,2020.1.2,Win32,60,5fe17d4a51f3a9c1a60f9869,,,,,,,,,,,,,,,,,,,7,PF,,7,4.20454,,,,,,,,,,,,,,,,,,,,,,,,,,,,,,,,,,22.60005732,62.69999635,1,0,0,response1disk,6,53,-8.599991977,-7.700004697,1,0,0,rectangle,-8.599991977,-7.700004697,1,0,0,5,3,"[287,127,99,139,210,112,64,117,202,245,50,5,121,4,210,125,323,210,177,80]",-8.599991977,-7.700004697,1,0,0,0,52,52,29,1,,,,,,,,,,,,,,,,,,,,,,,
,,,,,,,,,,,,,,,,,,,,,,,,,,,,,,,,,,,,,,,,,,,5fd0189eb30e9306837dc340,5fe192008929f0c3944d60f5,2020-12-22_00h29.17.449,FlowerSimilarity_Experiment,2020.1.2,Win32,60,5fe17d4a51f3a9c1a60f9869,,,,,,,,,,,,,,,,,,,5,FF,,7,2.49061,,,,,,,,,,,,,,,,,,,,,,,,,,,,,,,,,,37.80000871,66.69999641,1,0,0,response1disk,4,54,-11.79999202,-2.100004613,1,0,0,rectangle,-11.79999202,-2.100004613,1,0,0,5,3,"[287,127,99,139,210,112,64,117,202,245,50,5,121,4,210,125,323,210,177,80]",-11.79999202,-2.100004613,1,0,0,0,53,53,8,1,,,,,,,,,,,,,,,,,,,,,,,
,,,,,,,,,,,,,,,,,,,,,,,,,,,,,,,,,,,,,,,,,,,5fd0189eb30e9306837dc340,5fe192008929f0c3944d60f5,2020-12-22_00h29.17.449,FlowerSimilarity_Experiment,2020.1.2,Win32,60,5fe17d4a51f3a9c1a60f9869,,,,,,,,,,,,,,,,,,,3,PF,,6,2.03373,,,,,,,,,,,,,,,,,,,,,,,,,,,,,,,,,,81.00000936,26.6999714,1,0,0,response1disk,5,55,0.200008154,-1.300029016,1,0,0,rectangle,0.200008154,-1.300029016,1,0,0,5,2,"[287,127,99,139,210,112,64,117,202,245,50,5,121,4,210,125,323,210,177,80]",0.200008154,-1.300029016,1,0,0,0,54,54,66,1,,,,,,,,,,,,,,,,,,,,,,,
,,,,,,,,,,,,,,,,,,,,,,,,,,,,,,,,,,,,,,,,,,,5fd0189eb30e9306837dc340,5fe192008929f0c3944d60f5,2020-12-22_00h29.17.449,FlowerSimilarity_Experiment,2020.1.2,Win32,60,5fe17d4a51f3a9c1a60f9869,,,,,,,,,,,,,,,,,,,4,PF,,3,3.70879,,,,,,,,,,,,,,,,,,,,,,,,,,,,,,,,,,-38.19999242,-77.30003015,1,0,0,response5disk,7,56,-6.199991941,-1.300029016,1,0,0,rectangle,-6.199991941,-1.300029016,1,0,0,5,0,"[287,127,99,139,210,112,64,117,202,245,50,5,121,4,210,125,323,210,177,80]",-6.199991941,-1.300029016,1,0,0,0,55,55,38,1,,,,,,,,,,,,,,,,,,,,,,,
,,,,,,,,,,,,,,,,,,,,,,,,,,,,,,,,,,,,,,,,,,,5fd0189eb30e9306837dc340,5fe192008929f0c3944d60f5,2020-12-22_00h29.17.449,FlowerSimilarity_Experiment,2020.1.2,Win32,60,5fe17d4a51f3a9c1a60f9869,,,,,,,,,,,,,,,,,,,7,FF,,7,1.8158,,,,,,,,,,,,,,,,,,,,,,,,,,,,,,,,,,28.20000857,65.8999964,1,0,0,response1disk,9,57,-3.799991906,-8.500004709,1,0,0,rectangle,-3.799991906,-8.500004709,1,0,0,5,7,"[287,127,99,139,210,112,64,117,202,245,50,5,121,4,210,125,323,210,177,80]",-3.799991906,-8.500004709,1,0,0,0,56,56,155,1,,,,,,,,,,,,,,,,,,,,,,,
,,,,,,,,,,,,,,,,,,,,,,,,,,,,,,,,,,,,,,,,,,,5fd0189eb30e9306837dc340,5fe192008929f0c3944d60f5,2020-12-22_00h29.17.449,FlowerSimilarity_Experiment,2020.1.2,Win32,60,5fe17d4a51f3a9c1a60f9869,,,,,,,,,,,,,,,,,,,5,PF,,0,1.56004,,,,,,,,,,,,,,,,,,,,,,,,,,,,,,,,,,-30.1999923,71.49999648,1,0,0,response7disk,5,58,1.800008178,-5.300029075,1,0,0,rectangle,1.800008178,-5.300029075,1,0,0,5,4,"[287,127,99,139,210,112,64,117,202,245,50,5,121,4,210,125,323,210,177,80]",1.800008178,-5.300029075,1,0,0,0,57,57,94,1,,,,,,,,,,,,,,,,,,,,,,,
,,,,,,,,,,,,,,,,,,,,,,,,,,,,,,,,,,,,,,,,,,,5fd0189eb30e9306837dc340,5fe192008929f0c3944d60f5,2020-12-22_00h29.17.449,FlowerSimilarity_Experiment,2020.1.2,Win32,60,5fe17d4a51f3a9c1a60f9869,,,,,,,,,,,,,,,,,,,9,PF,,7,1.561465,,,,,,,,,,,,,,,,,,,,,,,,,,,,,,,,,,34.60005749,66.69999641,1,0,0,response1disk,2,59,-10.99999201,-0.50000459,1,0,0,rectangle,-10.99999201,-0.50000459,1,0,0,5,0,"[287,127,99,139,210,112,64,117,202,245,50,5,121,4,210,125,323,210,177,80]",-10.99999201,-0.50000459,1,0,0,0,58,58,157,1,,,,,,,,,,,,,,,,,,,,,,,
,,,,,,,,,,,,,,,,,,,,,,,,,,,,,,,,,,,,,,,,,,,5fd0189eb30e9306837dc340,5fe192008929f0c3944d60f5,2020-12-22_00h29.17.449,FlowerSimilarity_Experiment,2020.1.2,Win32,60,5fe17d4a51f3a9c1a60f9869,,,,,,,,,,,,,,,,,,,3,FF,,7,1.375055,,,,,,,,,,,,,,,,,,,,,,,,,,,,,,,,,,31.40000862,57.89999628,1,0,0,response1disk,4,60,-6.199991941,-3.700004637,1,0,0,rectangle,-6.199991941,-3.700004637,1,0,0,5,0,"[287,127,99,139,210,112,64,117,202,245,50,5,121,4,210,125,323,210,177,80]",-6.199991941,-3.700004637,1,0,0,0,59,59,110,1,,,,,,,,,,,,,,,,,,,,,,,
,,,,,,,,,,,,,,,,,,,,,,,,,,,,,,,,,,,,,,,,,,,5fd0189eb30e9306837dc340,5fe192008929f0c3944d60f5,2020-12-22_00h29.17.449,FlowerSimilarity_Experiment,2020.1.2,Win32,60,5fe17d4a51f3a9c1a60f9869,,,,,,,,,,,,,,,,,,,4,PF,,0,1.269135,,,,,,,,,,,,,,,,,,,,,,,,,,,,,,,,,,-47.79999256,69.09999645,1,0,0,response7disk,4,61,1.000008166,1.899995446,1,0,0,rectangle,1.000008166,1.899995446,1,0,0,5,7,"[287,127,99,139,210,112,64,117,202,245,50,5,121,4,210,125,323,210,177,80]",1.000008166,1.899995446,1,0,0,0,60,60,70,1,,,,,,,,,,,,,,,,,,,,,,,
,,,,,,,,,,,,,,,,,,,,,,,,,,,,,,,,,,,,,,,,,,,5fd0189eb30e9306837dc340,5fe192008929f0c3944d60f5,2020-12-22_00h29.17.449,FlowerSimilarity_Experiment,2020.1.2,Win32,60,5fe17d4a51f3a9c1a60f9869,,,,,,,,,,,,,,,,,,,6,PF,,1,4.006775,,,,,,,,,,,,,,,,,,,,,,,,,,,,,,,,,,-72.59999293,33.89999592,1,0,0,response7disk,6,62,5.000008225,-5.300029075,1,0,0,rectangle,5.000008225,-5.300029075,1,0,0,5,2,"[287,127,99,139,210,112,64,117,202,245,50,5,121,4,210,125,323,210,177,80]",5.000008225,-5.300029075,1,0,0,0,61,61,0,1,,,,,,,,,,,,,,,,,,,,,,,
,,,,,,,,,,,,,,,,,,,,,,,,,,,,,,,,,,,,,,,,,,,5fd0189eb30e9306837dc340,5fe192008929f0c3944d60f5,2020-12-22_00h29.17.449,FlowerSimilarity_Experiment,2020.1.2,Win32,60,5fe17d4a51f3a9c1a60f9869,,,,,,,,,,,,,,,,,,,2,FF,,7,1.29533,,,,,,,,,,,,,,,,,,,,,,,,,,,,,,,,,,26.60005738,73.09999651,1,0,0,response1disk,6,63,-10.199992,3.49999547,1,0,0,rectangle,-10.199992,3.49999547,1,0,0,5,5,"[287,127,99,139,210,112,64,117,202,245,50,5,121,4,210,125,323,210,177,80]",-10.199992,3.49999547,1,0,0,0,62,62,40,1,,,,,,,,,,,,,,,,,,,,,,,
,,,,,,,,,,,,,,,,,,,,,,,,,,,,,,,,,,,,,,,,,,,5fd0189eb30e9306837dc340,5fe192008929f0c3944d60f5,2020-12-22_00h29.17.449,FlowerSimilarity_Experiment,2020.1.2,Win32,60,5fe17d4a51f3a9c1a60f9869,,,,,,,,,,,,,,,,,,,2,PF,,6,3.419225,,,,,,,,,,,,,,,,,,,,,,,,,,,,,,,,,,65.00000912,40.29999602,1,0,0,response1disk,3,64,-4.599991918,-3.700004637,1,0,0,rectangle,38.60005755,65.8999964,1,0,0,7,7,"[287,127,99,139,210,112,64,117,202,245,50,5,121,4,210,125,323,210,177,80]",-10.199992,1.899995446,1,0,0,0,63,63,69,1,response1disk_3,rectangle,,,,,,,,,,,,,,,,,,,,,
,,,,,,,,,,,,,,,,,,,,,,,,,,,,,,,,,,,,,,,,,,,5fd0189eb30e9306837dc340,5fe192008929f0c3944d60f5,2020-12-22_00h29.17.449,FlowerSimilarity_Experiment,2020.1.2,Win32,60,5fe17d4a51f3a9c1a60f9869,,,,,,,,,,,,,,,,,,,2,FF,,7,1.37924,,,,,,,,,,,,,,,,,,,,,,,,,,,,,,,,,,27.40000856,51.49999619,1,0,0,response1disk,1,65,-5.399943101,-2.900004625,1,0,0,rectangle,-5.399943101,-2.900004625,1,0,0,7,3,"[287,127,99,139,210,112,64,117,202,245,50,5,121,4,210,125,323,210,177,80]",-5.399943101,-2.900004625,1,0,0,0,64,64,85,1,,,,,,,,,,,,,,,,,,,,,,,
,,,,,,,,,,,,,,,,,,,,,,,,,,,,,,,,,,,,,,,,,,,5fd0189eb30e9306837dc340,5fe192008929f0c3944d60f5,2020-12-22_00h29.17.449,FlowerSimilarity_Experiment,2020.1.2,Win32,60,5fe17d4a51f3a9c1a60f9869,,,,,,,,,,,,,,,,,,,2,PF,,0,1.45976,,,,,,,,,,,,,,,,,,,,,,,,,,,,,,,,,,-33.39994352,64.29999638,1,0,0,response7disk,2,66,-4.599991918,1.899995446,1,0,0,rectangle,-4.599991918,1.899995446,1,0,0,7,1,"[287,127,99,139,210,112,64,117,202,245,50,5,121,4,210,125,323,210,177,80]",-4.599991918,1.899995446,1,0,0,0,65,65,14,1,,,,,,,,,,,,,,,,,,,,,,,
,,,,,,,,,,,,,,,,,,,,,,,,,,,,,,,,,,,,,,,,,,,5fd0189eb30e9306837dc340,5fe192008929f0c3944d60f5,2020-12-22_00h29.17.449,FlowerSimilarity_Experiment,2020.1.2,Win32,60,5fe17d4a51f3a9c1a60f9869,,,,,,,,,,,,,,,,,,,7,FF,,3,3.15335,,,,,,,,,,,,,,,,,,,,,,,,,,,,,,,,,,-37.39999241,-71.70000565,1,0,0,response5disk,7,67,-14.99999207,3.49999547,1,0,0,rectangle,-14.99999207,3.49999547,1,0,0,7,7,"[287,127,99,139,210,112,64,117,202,245,50,5,121,4,210,125,323,210,177,80]",-14.99999207,3.49999547,1,0,0,0,66,66,34,1,,,,,,,,,,,,,,,,,,,,,,,
,,,,,,,,,,,,,,,,,,,,,,,,,,,,,,,,,,,,,,,,,,,5fd0189eb30e9306837dc340,5fe192008929f0c3944d60f5,2020-12-22_00h29.17.449,FlowerSimilarity_Experiment,2020.1.2,Win32,60,5fe17d4a51f3a9c1a60f9869,,,,,,,,,,,,,,,,,,,6,PF,,7,1.316285,,,,,,,,,,,,,,,,,,,,,,,,,,,,,,,,,,34.60005749,69.09999645,1,0,0,response1disk,3,68,-5.399943101,6.699971104,1,0,0,rectangle,-5.399943101,6.699971104,1,0,0,7,5,"[287,127,99,139,210,112,64,117,202,245,50,5,121,4,210,125,323,210,177,80]",-5.399943101,6.699971104,1,0,0,0,67,67,26,1,,,,,,,,,,,,,,,,,,,,,,,
,,,,,,,,,,,,,,,,,,,,,,,,,,,,,,,,,,,,,,,,,,,5fd0189eb30e9306837dc340,5fe192008929f0c3944d60f5,2020-12-22_00h29.17.449,FlowerSimilarity_Experiment,2020.1.2,Win32,60,5fe17d4a51f3a9c1a60f9869,,,,,,,,,,,,,,,,,,,6,FF,,3,2.433845,,,,,,,,,,,,,,,,,,,,,,,,,,,,,,,,,,-49.39999259,-78.90000576,1,0,0,response5disk,9,69,-4.599991918,-4.500004649,1,0,0,rectangle,-4.599991918,-4.500004649,1,0,0,7,4,"[287,127,99,139,210,112,64,117,202,245,50,5,121,4,210,125,323,210,177,80]",-4.599991918,-4.500004649,1,0,0,0,68,68,160,1,,,,,,,,,,,,,,,,,,,,,,,
,,,,,,,,,,,,,,,,,,,,,,,,,,,,,,,,,,,,,,,,,,,5fd0189eb30e9306837dc340,5fe192008929f0c3944d60f5,2020-12-22_00h29.17.449,FlowerSimilarity_Experiment,2020.1.2,Win32,60,5fe17d4a51f3a9c1a60f9869,,,,,,,,,,,,,,,,,,,4,FF,,7,1.29197,,,,,,,,,,,,,,,,,,,,,,,,,,,,,,,,,,29.80000859,51.49999619,1,0,0,response1disk,9,70,1.800008178,6.699971104,1,0,0,rectangle,1.800008178,6.699971104,1,0,0,7,5,"[287,127,99,139,210,112,64,117,202,245,50,5,121,4,210,125,323,210,177,80]",1.800008178,6.699971104,1,0,0,0,69,69,90,1,,,,,,,,,,,,,,,,,,,,,,,
,,,,,,,,,,,,,,,,,,,,,,,,,,,,,,,,,,,,,,,,,,,5fd0189eb30e9306837dc340,5fe192008929f0c3944d60f5,2020-12-22_00h29.17.449,FlowerSimilarity_Experiment,2020.1.2,Win32,60,5fe17d4a51f3a9c1a60f9869,,,,,,,,,,,,,,,,,,,8,FF,,7,1.1586,,,,,,,,,,,,,,,,,,,,,,,,,,,,,,,,,,15.40000838,52.2999962,1,0,0,response1disk,9,71,-5.399943101,4.299995482,1,0,0,rectangle,-5.399943101,4.299995482,1,0,0,7,3,"[287,127,99,139,210,112,64,117,202,245,50,5,121,4,210,125,323,210,177,80]",-5.399943101,4.299995482,1,0,0,0,70,70,105,1,,,,,,,,,,,,,,,,,,,,,,,
,,,,,,,,,,,,,,,,,,,,,,,,,,,,,,,,,,,,,,,,,,,5fd0189eb30e9306837dc340,5fe192008929f0c3944d60f5,2020-12-22_00h29.17.449,FlowerSimilarity_Experiment,2020.1.2,Win32,60,5fe17d4a51f3a9c1a60f9869,,,,,,,,,,,,,,,,,,,4,PF,,7,1.084295,,,,,,,,,,,,,,,,,,,,,,,,,,,,,,,,,,25.00000852,88.29999673,1,0,0,response1disk,8,72,-0.599991858,1.899995446,1,0,0,rectangle,-0.599991858,1.899995446,1,0,0,7,2,"[287,127,99,139,210,112,64,117,202,245,50,5,121,4,210,125,323,210,177,80]",-0.599991858,1.899995446,1,0,0,0,71,71,124,1,,,,,,,,,,,,,,,,,,,,,,,
,,,,,,,,,,,,,,,,,,,,,,,,,,,,,,,,,,,,,,,,,,,5fd0189eb30e9306837dc340,5fe192008929f0c3944d60f5,2020-12-22_00h29.17.449,FlowerSimilarity_Experiment,2020.1.2,Win32,60,5fe17d4a51f3a9c1a60f9869,,,,,,,,,,,,,,,,,,,2,PF,,7,1.152345,,,,,,,,,,,,,,,,,,,,,,,,,,,,,,,,,,27.40000856,60.29999632,1,0,0,response1disk,9,73,-11.79999202,-8.500004709,1,0,0,rectangle,-11.79999202,-8.500004709,1,0,0,7,4,"[287,127,99,139,210,112,64,117,202,245,50,5,121,4,210,125,323,210,177,80]",-11.79999202,-8.500004709,1,0,0,0,72,72,39,1,,,,,,,,,,,,,,,,,,,,,,,
,,,,,,,,,,,,,,,,,,,,,,,,,,,,,,,,,,,,,,,,,,,5fd0189eb30e9306837dc340,5fe192008929f0c3944d60f5,2020-12-22_00h29.17.449,FlowerSimilarity_Experiment,2020.1.2,Win32,60,5fe17d4a51f3a9c1a60f9869,,,,,,,,,,,,,,,,,,,8,PF,,7,1.17922,,,,,,,,,,,,,,,,,,,,,,,,,,,,,,,,,,22.60005732,62.69999635,1,0,0,response1disk,1,74,-10.199992,2.699971044,1,0,0,rectangle,-10.199992,2.699971044,1,0,0,7,3,"[287,127,99,139,210,112,64,117,202,245,50,5,121,4,210,125,323,210,177,80]",-10.199992,2.699971044,1,0,0,0,73,73,57,1,,,,,,,,,,,,,,,,,,,,,,,
,,,,,,,,,,,,,,,,,,,,,,,,,,,,,,,,,,,,,,,,,,,5fd0189eb30e9306837dc340,5fe192008929f0c3944d60f5,2020-12-22_00h29.17.449,FlowerSimilarity_Experiment,2020.1.2,Win32,60,5fe17d4a51f3a9c1a60f9869,,,,,,,,,,,,,,,,,,,7,FF,,7,1.88867,,,,,,,,,,,,,,,,,,,,,,,,,,,,,,,,,,29.00000858,66.69999641,1,0,0,response1disk,2,75,-7.799991965,5.899995506,1,0,0,rectangle,-7.799991965,5.899995506,1,0,0,7,3,"[287,127,99,139,210,112,64,117,202,245,50,5,121,4,210,125,323,210,177,80]",-7.799991965,5.899995506,1,0,0,0,74,74,138,1,,,,,,,,,,,,,,,,,,,,,,,
,,,,,,,,,,,,,,,,,,,,,,,,,,,,,,,,,,,,,,,,,,,5fd0189eb30e9306837dc340,5fe192008929f0c3944d60f5,2020-12-22_00h29.17.449,FlowerSimilarity_Experiment,2020.1.2,Win32,60,5fe17d4a51f3a9c1a60f9869,,,,,,,,,,,,,,,,,,,4,FF,,7,1.081175,,,,,,,,,,,,,,,,,,,,,,,,,,,,,,,,,,25.80000854,58.69999629,1,0,0,response1disk,8,76,-6.199991941,0.299995422,1,0,0,rectangle,-6.199991941,0.299995422,1,0,0,7,5,"[287,127,99,139,210,112,64,117,202,245,50,5,121,4,210,125,323,210,177,80]",-6.199991941,0.299995422,1,0,0,0,75,75,35,1,,,,,,,,,,,,,,,,,,,,,,,
,,,,,,,,,,,,,,,,,,,,,,,,,,,,,,,,,,,,,,,,,,,5fd0189eb30e9306837dc340,5fe192008929f0c3944d60f5,2020-12-22_00h29.17.449,FlowerSimilarity_Experiment,2020.1.2,Win32,60,5fe17d4a51f3a9c1a60f9869,,,,,,,,,,,,,,,,,,,4,FF,,7,1.12881,,,,,,,,,,,,,,,,,,,,,,,,,,,,,,,,,,31.40000862,73.09999651,1,0,0,response1disk,5,77,-1.399943042,6.699971104,1,0,0,rectangle,-1.399943042,6.699971104,1,0,0,7,1,"[287,127,99,139,210,112,64,117,202,245,50,5,121,4,210,125,323,210,177,80]",-1.399943042,6.699971104,1,0,0,0,76,76,116,1,,,,,,,,,,,,,,,,,,,,,,,
,,,,,,,,,,,,,,,,,,,,,,,,,,,,,,,,,,,,,,,,,,,5fd0189eb30e9306837dc340,5fe192008929f0c3944d60f5,2020-12-22_00h29.17.449,FlowerSimilarity_Experiment,2020.1.2,Win32,60,5fe17d4a51f3a9c1a60f9869,,,,,,,,,,,,,,,,,,,4,PF,,7,1.117695,,,,,,,,,,,,,,,,,,,,,,,,,,,,,,,,,,33.00000864,74.69999653,1,0,0,response1disk,6,78,-10.99999201,-7.700004697,1,0,0,rectangle,-10.99999201,-7.700004697,1,0,0,7,6,"[287,127,99,139,210,112,64,117,202,245,50,5,121,4,210,125,323,210,177,80]",-10.99999201,-7.700004697,1,0,0,0,77,77,120,1,,,,,,,,,,,,,,,,,,,,,,,
,,,,,,,,,,,,,,,,,,,,,,,,,,,,,,,,,,,,,,,,,,,5fd0189eb30e9306837dc340,5fe192008929f0c3944d60f5,2020-12-22_00h29.17.449,FlowerSimilarity_Experiment,2020.1.2,Win32,60,5fe17d4a51f3a9c1a60f9869,,,,,,,,,,,,,,,,,,,2,PF,,7,1.07367,,,,,,,,,,,,,,,,,,,,,,,,,,,,,,,,,,53.00000894,84.29999667,1,0,0,response1disk,8,79,-7.799991965,0.299995422,1,0,0,rectangle,-7.799991965,0.299995422,1,0,0,7,6,"[287,127,99,139,210,112,64,117,202,245,50,5,121,4,210,125,323,210,177,80]",-7.799991965,0.299995422,1,0,0,0,78,78,52,1,,,,,,,,,,,,,,,,,,,,,,,
,,,,,,,,,,,,,,,,,,,,,,,,,,,,,,,,,,,,,,,,,,,5fd0189eb30e9306837dc340,5fe192008929f0c3944d60f5,2020-12-22_00h29.17.449,FlowerSimilarity_Experiment,2020.1.2,Win32,60,5fe17d4a51f3a9c1a60f9869,,,,,,,,,,,,,,,,,,,5,FF,,4,1.761675,,,,,,,,,,,,,,,,,,,,,,,,,,,,,,,,,,36.20000869,-66.10000557,1,0,0,response3disk,3,80,-4.599991918,-2.900004625,1,0,0,rectangle,-40.59999245,70.69999647,1,0,0,0,0,"[287,127,99,139,210,112,64,117,202,245,50,5,121,4,210,125,323,210,177,80]",-6.999991953,3.49999547,1,0,0,0,79,79,25,1,response7disk_3,rectangle,,,,,,,,,,,,,,,,,,,,,
,,,,,,,,,,,,,,,,,,,,,,,,,,,,,,,,,,,,,,,,,,,5fd0189eb30e9306837dc340,5fe192008929f0c3944d60f5,2020-12-22_00h29.17.449,FlowerSimilarity_Experiment,2020.1.2,Win32,60,5fe17d4a51f3a9c1a60f9869,,,,,,,,,,,,,,,,,,,2,PF,,7,1.35044,,,,,,,,,,,,,,,,,,,,,,,,,,,,,,,,,,29.00000858,65.09999639,1,0,0,response1disk,5,81,-5.399943101,0.299995422,1,0,0,rectangle,-5.399943101,0.299995422,1,0,0,0,4,"[287,127,99,139,210,112,64,117,202,245,50,5,121,4,210,125,323,210,177,80]",-5.399943101,0.299995422,1,0,0,0,80,80,147,1,,,,,,,,,,,,,,,,,,,,,,,
,,,,,,,,,,,,,,,,,,,,,,,,,,,,,,,,,,,,,,,,,,,5fd0189eb30e9306837dc340,5fe192008929f0c3944d60f5,2020-12-22_00h29.17.449,FlowerSimilarity_Experiment,2020.1.2,Win32,60,5fe17d4a51f3a9c1a60f9869,,,,,,,,,,,,,,,,,,,7,PF,,7,1.181995,,,,,,,,,,,,,,,,,,,,,,,,,,,,,,,,,,49.80000889,68.29999644,1,0,0,response1disk,1,82,-8.599991977,1.899995446,1,0,0,rectangle,-8.599991977,1.899995446,1,0,0,0,4,"[287,127,99,139,210,112,64,117,202,245,50,5,121,4,210,125,323,210,177,80]",-8.599991977,1.899995446,1,0,0,0,81,81,53,1,,,,,,,,,,,,,,,,,,,,,,,
,,,,,,,,,,,,,,,,,,,,,,,,,,,,,,,,,,,,,,,,,,,5fd0189eb30e9306837dc340,5fe192008929f0c3944d60f5,2020-12-22_00h29.17.449,FlowerSimilarity_Experiment,2020.1.2,Win32,60,5fe17d4a51f3a9c1a60f9869,,,,,,,,,,,,,,,,,,,8,PF,,7,1.25065,,,,,,,,,,,,,,,,,,,,,,,,,,,,,,,,,,24.20000851,62.69999635,1,0,0,response1disk,4,83,-6.199991941,-3.700004637,1,0,0,rectangle,-6.199991941,-3.700004637,1,0,0,0,1,"[287,127,99,139,210,112,64,117,202,245,50,5,121,4,210,125,323,210,177,80]",-6.199991941,-3.700004637,1,0,0,0,82,82,78,1,,,,,,,,,,,,,,,,,,,,,,,
,,,,,,,,,,,,,,,,,,,,,,,,,,,,,,,,,,,,,,,,,,,5fd0189eb30e9306837dc340,5fe192008929f0c3944d60f5,2020-12-22_00h29.17.449,FlowerSimilarity_Experiment,2020.1.2,Win32,60,5fe17d4a51f3a9c1a60f9869,,,,,,,,,,,,,,,,,,,3,FF,,0,1.733515,,,,,,,,,,,,,,,,,,,,,,,,,,,,,,,,,,-25.3999434,62.69999635,1,0,0,response7disk,3,84,-6.999991953,1.099995434,1,0,0,rectangle,-6.999991953,1.099995434,1,0,0,0,0,"[287,127,99,139,210,112,64,117,202,245,50,5,121,4,210,125,323,210,177,80]",-6.999991953,1.099995434,1,0,0,0,83,83,68,1,,,,,,,,,,,,,,,,,,,,,,,
,,,,,,,,,,,,,,,,,,,,,,,,,,,,,,,,,,,,,,,,,,,5fd0189eb30e9306837dc340,5fe192008929f0c3944d60f5,2020-12-22_00h29.17.449,FlowerSimilarity_Experiment,2020.1.2,Win32,60,5fe17d4a51f3a9c1a60f9869,,,,,,,,,,,,,,,,,,,8,FF,,7,1.723305,,,,,,,,,,,,,,,,,,,,,,,,,,,,,,,,,,30.60005744,65.8999964,1,0,0,response1disk,6,85,-4.599991918,9.099995553,1,0,0,rectangle,-4.599991918,9.099995553,1,0,0,0,6,"[287,127,99,139,210,112,64,117,202,245,50,5,121,4,210,125,323,210,177,80]",-4.599991918,9.099995553,1,0,0,0,84,84,37,1,,,,,,,,,,,,,,,,,,,,,,,
,,,,,,,,,,,,,,,,,,,,,,,,,,,,,,,,,,,,,,,,,,,5fd0189eb30e9306837dc340,5fe192008929f0c3944d60f5,2020-12-22_00h29.17.449,FlowerSimilarity_Experiment,2020.1.2,Win32,60,5fe17d4a51f3a9c1a60f9869,,,,,,,,,,,,,,,,,,,7,FF,,0,1.28004,,,,,,,,,,,,,,,,,,,,,,,,,,,,,,,,,,-34.99999237,63.49999636,1,0,0,response7disk,3,86,-2.999991894,1.099995434,1,0,0,rectangle,-2.999991894,1.099995434,1,0,0,0,0,"[287,127,99,139,210,112,64,117,202,245,50,5,121,4,210,125,323,210,177,80]",-2.999991894,1.099995434,1,0,0,0,85,85,73,1,,,,,,,,,,,,,,,,,,,,,,,
,,,,,,,,,,,,,,,,,,,,,,,,,,,,,,,,,,,,,,,,,,,5fd0189eb30e9306837dc340,5fe192008929f0c3944d60f5,2020-12-22_00h29.17.449,FlowerSimilarity_Experiment,2020.1.2,Win32,60,5fe17d4a51f3a9c1a60f9869,,,,,,,,,,,,,,,,,,,2,FF,,7,1.351125,,,,,,,,,,,,,,,,,,,,,,,,,,,,,,,,,,29.00000858,64.29999638,1,0,0,response1disk,8,87,-4.599991918,-4.500004649,1,0,0,rectangle,-4.599991918,-4.500004649,1,0,0,0,3,"[287,127,99,139,210,112,64,117,202,245,50,5,121,4,210,125,323,210,177,80]",-4.599991918,-4.500004649,1,0,0,0,86,86,62,1,,,,,,,,,,,,,,,,,,,,,,,
,,,,,,,,,,,,,,,,,,,,,,,,,,,,,,,,,,,,,,,,,,,5fd0189eb30e9306837dc340,5fe192008929f0c3944d60f5,2020-12-22_00h29.17.449,FlowerSimilarity_Experiment,2020.1.2,Win32,60,5fe17d4a51f3a9c1a60f9869,,,,,,,,,,,,,,,,,,,8,FF,,3,2.024355,,,,,,,,,,,,,,,,,,,,,,,,,,,,,,,,,,-36.59999239,-66.90000558,1,0,0,response5disk,3,88,6.600057077,1.899995446,1,0,0,rectangle,6.600057077,1.899995446,1,0,0,0,1,"[287,127,99,139,210,112,64,117,202,245,50,5,121,4,210,125,323,210,177,80]",6.600057077,1.899995446,1,0,0,0,87,87,154,1,,,,,,,,,,,,,,,,,,,,,,,
,,,,,,,,,,,,,,,,,,,,,,,,,,,,,,,,,,,,,,,,,,,5fd0189eb30e9306837dc340,5fe192008929f0c3944d60f5,2020-12-22_00h29.17.449,FlowerSimilarity_Experiment,2020.1.2,Win32,60,5fe17d4a51f3a9c1a60f9869,,,,,,,,,,,,,,,,,,,1,PF,,1,2.04558,,,,,,,,,,,,,,,,,,,,,,,,,,,,,,,,,,-69.39999288,44.29999608,1,0,0,response7disk,1,89,-3.799991906,8.299995542,1,0,0,rectangle,-3.799991906,8.299995542,1,0,0,0,4,"[287,127,99,139,210,112,64,117,202,245,50,5,121,4,210,125,323,210,177,80]",-3.799991906,8.299995542,1,0,0,0,88,88,76,1,,,,,,,,,,,,,,,,,,,,,,,
,,,,,,,,,,,,,,,,,,,,,,,,,,,,,,,,,,,,,,,,,,,5fd0189eb30e9306837dc340,5fe192008929f0c3944d60f5,2020-12-22_00h29.17.449,FlowerSimilarity_Experiment,2020.1.2,Win32,60,5fe17d4a51f3a9c1a60f9869,,,,,,,,,,,,,,,,,,,6,PF,,7,1.090645,,,,,,,,,,,,,,,,,,,,,,,,,,,,,,,,,,40.20000875,67.49999642,1,0,0,response1disk,5,90,-7.799991965,-5.300029075,1,0,0,rectangle,-7.799991965,-5.300029075,1,0,0,0,1,"[287,127,99,139,210,112,64,117,202,245,50,5,121,4,210,125,323,210,177,80]",-7.799991965,-5.300029075,1,0,0,0,89,89,59,1,,,,,,,,,,,,,,,,,,,,,,,
,,,,,,,,,,,,,,,,,,,,,,,,,,,,,,,,,,,,,,,,,,,5fd0189eb30e9306837dc340,5fe192008929f0c3944d60f5,2020-12-22_00h29.17.449,FlowerSimilarity_Experiment,2020.1.2,Win32,60,5fe17d4a51f3a9c1a60f9869,,,,,,,,,,,,,,,,,,,2,PF,,7,1.619615,,,,,,,,,,,,,,,,,,,,,,,,,,,,,,,,,,38.60005755,74.69999653,1,0,0,response1disk,7,91,0.200008154,-7.700004697,1,0,0,rectangle,0.200008154,-7.700004697,1,0,0,0,0,"[287,127,99,139,210,112,64,117,202,245,50,5,121,4,210,125,323,210,177,80]",0.200008154,-7.700004697,1,0,0,0,90,90,107,1,,,,,,,,,,,,,,,,,,,,,,,
,,,,,,,,,,,,,,,,,,,,,,,,,,,,,,,,,,,,,,,,,,,5fd0189eb30e9306837dc340,5fe192008929f0c3944d60f5,2020-12-22_00h29.17.449,FlowerSimilarity_Experiment,2020.1.2,Win32,60,5fe17d4a51f3a9c1a60f9869,,,,,,,,,,,,,,,,,,,9,PF,,2,2.06303,,,,,,,,,,,,,,,,,,,,,,,,,,,,,,,,,,-71.79999292,-33.30002949,1,0,0,response5disk,1,92,2.600057018,-6.100004673,1,0,0,rectangle,2.600057018,-6.100004673,1,0,0,0,0,"[287,127,99,139,210,112,64,117,202,245,50,5,121,4,210,125,323,210,177,80]",2.600057018,-6.100004673,1,0,0,0,91,91,74,1,,,,,,,,,,,,,,,,,,,,,,,
,,,,,,,,,,,,,,,,,,,,,,,,,,,,,,,,,,,,,,,,,,,5fd0189eb30e9306837dc340,5fe192008929f0c3944d60f5,2020-12-22_00h29.17.449,FlowerSimilarity_Experiment,2020.1.2,Win32,60,5fe17d4a51f3a9c1a60f9869,,,,,,,,,,,,,,,,,,,7,FF,,6,4.271515,,,,,,,,,,,,,,,,,,,,,,,,,,,,,,,,,,61.00000906,27.49999583,1,0,0,response1disk,8,93,-2.999991894,-6.100004673,1,0,0,rectangle,-2.999991894,-6.100004673,1,0,0,0,2,"[287,127,99,139,210,112,64,117,202,245,50,5,121,4,210,125,323,210,177,80]",-2.999991894,-6.100004673,1,0,0,0,92,92,97,1,,,,,,,,,,,,,,,,,,,,,,,
,,,,,,,,,,,,,,,,,,,,,,,,,,,,,,,,,,,,,,,,,,,5fd0189eb30e9306837dc340,5fe192008929f0c3944d60f5,2020-12-22_00h29.17.449,FlowerSimilarity_Experiment,2020.1.2,Win32,60,5fe17d4a51f3a9c1a60f9869,,,,,,,,,,,,,,,,,,,3,FF,,1,2.94424,,,,,,,,,,,,,,,,,,,,,,,,,,,,,,,,,,-81.39999306,37.89999598,1,0,0,response7disk,7,94,-4.599991918,6.699971104,1,0,0,rectangle,-4.599991918,6.699971104,1,0,0,0,3,"[287,127,99,139,210,112,64,117,202,245,50,5,121,4,210,125,323,210,177,80]",-4.599991918,6.699971104,1,0,0,0,93,93,118,1,,,,,,,,,,,,,,,,,,,,,,,
,,,,,,,,,,,,,,,,,,,,,,,,,,,,,,,,,,,,,,,,,,,5fd0189eb30e9306837dc340,5fe192008929f0c3944d60f5,2020-12-22_00h29.17.449,FlowerSimilarity_Experiment,2020.1.2,Win32,60,5fe17d4a51f3a9c1a60f9869,,,,,,,,,,,,,,,,,,,5,PF,,6,1.758505,,,,,,,,,,,,,,,,,,,,,,,,,,,,,,,,,,61.80000907,39.49999601,1,0,0,response1disk,2,95,-13.39994322,1.899995446,1,0,0,rectangle,-13.39994322,1.899995446,1,0,0,0,6,"[287,127,99,139,210,112,64,117,202,245,50,5,121,4,210,125,323,210,177,80]",-13.39994322,1.899995446,1,0,0,0,94,94,129,1,,,,,,,,,,,,,,,,,,,,,,,
,,,,,,,,,,,,,,,,,,,,,,,,,,,,,,,,,,,,,,,,,,,5fd0189eb30e9306837dc340,5fe192008929f0c3944d60f5,2020-12-22_00h29.17.449,FlowerSimilarity_Experiment,2020.1.2,Win32,60,5fe17d4a51f3a9c1a60f9869,,,,,,,,,,,,,,,,,,,1,PF,,7,1.961275,,,,,,,,,,,,,,,,,,,,,,,,,,,,,,,,,,39.40000874,77.89999658,1,0,0,response1disk,8,96,-2.999991894,-2.100004613,1,0,0,rectangle,-2.999991894,-2.100004613,1,0,0,0,6,"[287,127,99,139,210,112,64,117,202,245,50,5,121,4,210,125,323,210,177,80]",-2.999991894,-2.100004613,1,0,0,0,95,95,65,1,,,,,,,,,,,,,,,,,,,,,,,
,,,,,,,,,,,,,,,,,,,,,,,,,,,,,,,,,,,,,,,,,,,5fd0189eb30e9306837dc340,5fe192008929f0c3944d60f5,2020-12-22_00h29.17.449,FlowerSimilarity_Experiment,2020.1.2,Win32,60,5fe17d4a51f3a9c1a60f9869,,,,,,,,,,,,,,,,,,,6,PF,,7,1.172895,,,,,,,,,,,,,,,,,,,,,,,,,,,,,,,,,,30.60005744,55.49999624,1,0,0,response1disk,7,97,-4.599991918,5.099995494,1,0,0,rectangle,-4.599991918,5.099995494,1,0,0,0,0,"[287,127,99,139,210,112,64,117,202,245,50,5,121,4,210,125,323,210,177,80]",-4.599991918,5.099995494,1,0,0,0,96,96,50,1,,,,,,,,,,,,,,,,,,,,,,,
,,,,,,,,,,,,,,,,,,,,,,,,,,,,,,,,,,,,,,,,,,,5fd0189eb30e9306837dc340,5fe192008929f0c3944d60f5,2020-12-22_00h29.17.449,FlowerSimilarity_Experiment,2020.1.2,Win32,60,5fe17d4a51f3a9c1a60f9869,,,,,,,,,,,,,,,,,,,5,PF,,7,1.055165,,,,,,,,,,,,,,,,,,,,,,,,,,,,,,,,,,25.80000854,55.49999624,1,0,0,response1disk,4,98,1.000008166,-1.300029016,1,0,0,rectangle,1.000008166,-1.300029016,1,0,0,0,3,"[287,127,99,139,210,112,64,117,202,245,50,5,121,4,210,125,323,210,177,80]",1.000008166,-1.300029016,1,0,0,0,97,97,54,1,,,,,,,,,,,,,,,,,,,,,,,
,,,,,,,,,,,,,,,,,,,,,,,,,,,,,,,,,,,,,,,,,,,5fd0189eb30e9306837dc340,5fe192008929f0c3944d60f5,2020-12-22_00h29.17.449,FlowerSimilarity_Experiment,2020.1.2,Win32,60,5fe17d4a51f3a9c1a60f9869,,,,,,,,,,,,,,,,,,,9,PF,,7,1.672625,,,,,,,,,,,,,,,,,,,,,,,,,,,,,,,,,,20.20000845,70.69999647,1,0,0,response1disk,3,99,-7.799991965,-1.300029016,1,0,0,rectangle,-38.19999242,-73.30003009,1,0,0,3,3,"[287,127,99,139,210,112,64,117,202,245,50,5,121,4,210,125,323,210,177,80]",2.600057018,-0.50000459,1,0,0,0,98,98,119,1,response5disk_3,rectangle,,,,,,,,,,,,,,,,,,,,,
,,,,,,,,,,,,,,,,,,,,,,,,,,,,,,,,,,,,,,,,,,,5fd0189eb30e9306837dc340,5fe192008929f0c3944d60f5,2020-12-22_00h29.17.449,FlowerSimilarity_Experiment,2020.1.2,Win32,60,5fe17d4a51f3a9c1a60f9869,,,,,,,,,,,,,,,,,,,8,PF,,2,1.875945,,,,,,,,,,,,,,,,,,,,,,,,,,,,,,,,,,-84.59999311,-38.90000516,1,0,0,response5disk,8,100,-8.599991977,2.699971044,1,0,0,rectangle,-8.599991977,2.699971044,1,0,0,3,0,"[287,127,99,139,210,112,64,117,202,245,50,5,121,4,210,125,323,210,177,80]",-8.599991977,2.699971044,1,0,0,0,99,99,153,1,,,,,,,,,,,,,,,,,,,,,,,
,,,,,,,,,,,,,,,,,,,,,,,,,,,,,,,,,,,,,,,,,,,5fd0189eb30e9306837dc340,5fe192008929f0c3944d60f5,2020-12-22_00h29.17.449,FlowerSimilarity_Experiment,2020.1.2,Win32,60,5fe17d4a51f3a9c1a60f9869,,,,,,,,,,,,,,,,,,,8,FF,,2,2.551845,,,,,,,,,,,,,,,,,,,,,,,,,,,,,,,,,,-68.59999287,-31.70000505,1,0,0,response5disk,5,101,-2.999991894,-4.500004649,1,0,0,rectangle,-2.999991894,-4.500004649,1,0,0,3,3,"[287,127,99,139,210,112,64,117,202,245,50,5,121,4,210,125,323,210,177,80]",-2.999991894,-4.500004649,1,0,0,0,100,100,152,1,,,,,,,,,,,,,,,,,,,,,,,
,,,,,,,,,,,,,,,,,,,,,,,,,,,,,,,,,,,,,,,,,,,5fd0189eb30e9306837dc340,5fe192008929f0c3944d60f5,2020-12-22_00h29.17.449,FlowerSimilarity_Experiment,2020.1.2,Win32,60,5fe17d4a51f3a9c1a60f9869,,,,,,,,,,,,,,,,,,,1,FF,,4,1.901755,,,,,,,,,,,,,,,,,,,,,,,,,,,,,,,,,,21.80000848,-70.90000564,1,0,0,response3disk,9,102,-0.599991858,8.299995542,1,0,0,rectangle,-0.599991858,8.299995542,1,0,0,3,2,"[287,127,99,139,210,112,64,117,202,245,50,5,121,4,210,125,323,210,177,80]",-0.599991858,8.299995542,1,0,0,0,101,101,123,1,,,,,,,,,,,,,,,,,,,,,,,
,,,,,,,,,,,,,,,,,,,,,,,,,,,,,,,,,,,,,,,,,,,5fd0189eb30e9306837dc340,5fe192008929f0c3944d60f5,2020-12-22_00h29.17.449,FlowerSimilarity_Experiment,2020.1.2,Win32,60,5fe17d4a51f3a9c1a60f9869,,,,,,,,,,,,,,,,,,,4,PF,,7,1.41243,,,,,,,,,,,,,,,,,,,,,,,,,,,,,,,,,,23.4000085,43.49999607,1,0,0,response1disk,5,103,3.400008202,3.49999547,1,0,0,rectangle,3.400008202,3.49999547,1,0,0,3,3,"[287,127,99,139,210,112,64,117,202,245,50,5,121,4,210,125,323,210,177,80]",3.400008202,3.49999547,1,0,0,0,102,102,49,1,,,,,,,,,,,,,,,,,,,,,,,
,,,,,,,,,,,,,,,,,,,,,,,,,,,,,,,,,,,,,,,,,,,5fd0189eb30e9306837dc340,5fe192008929f0c3944d60f5,2020-12-22_00h29.17.449,FlowerSimilarity_Experiment,2020.1.2,Win32,60,5fe17d4a51f3a9c1a60f9869,,,,,,,,,,,,,,,,,,,5,FF,,7,1.714415,,,,,,,,,,,,,,,,,,,,,,,,,,,,,,,,,,17.80000842,77.09999657,1,0,0,response1disk,1,104,-3.799991906,2.699971044,1,0,0,rectangle,-3.799991906,2.699971044,1,0,0,3,4,"[287,127,99,139,210,112,64,117,202,245,50,5,121,4,210,125,323,210,177,80]",-3.799991906,2.699971044,1,0,0,0,103,103,131,1,,,,,,,,,,,,,,,,,,,,,,,
,,,,,,,,,,,,,,,,,,,,,,,,,,,,,,,,,,,,,,,,,,,5fd0189eb30e9306837dc340,5fe192008929f0c3944d60f5,2020-12-22_00h29.17.449,FlowerSimilarity_Experiment,2020.1.2,Win32,60,5fe17d4a51f3a9c1a60f9869,,,,,,,,,,,,,,,,,,,3,PF,,7,1.131945,,,,,,,,,,,,,,,,,,,,,,,,,,,,,,,,,,27.40000856,52.2999962,1,0,0,response1disk,9,105,-11.79999202,-0.50000459,1,0,0,rectangle,-11.79999202,-0.50000459,1,0,0,3,4,"[287,127,99,139,210,112,64,117,202,245,50,5,121,4,210,125,323,210,177,80]",-11.79999202,-0.50000459,1,0,0,0,104,104,79,1,,,,,,,,,,,,,,,,,,,,,,,
,,,,,,,,,,,,,,,,,,,,,,,,,,,,,,,,,,,,,,,,,,,5fd0189eb30e9306837dc340,5fe192008929f0c3944d60f5,2020-12-22_00h29.17.449,FlowerSimilarity_Experiment,2020.1.2,Win32,60,5fe17d4a51f3a9c1a60f9869,,,,,,,,,,,,,,,,,,,8,FF,,7,1.33805,,,,,,,,,,,,,,,,,,,,,,,,,,,,,,,,,,27.40000856,66.69999641,1,0,0,response1disk,7,106,1.000008166,4.299995482,1,0,0,rectangle,1.000008166,4.299995482,1,0,0,3,0,"[287,127,99,139,210,112,64,117,202,245,50,5,121,4,210,125,323,210,177,80]",1.000008166,4.299995482,1,0,0,0,105,105,86,1,,,,,,,,,,,,,,,,,,,,,,,
,,,,,,,,,,,,,,,,,,,,,,,,,,,,,,,,,,,,,,,,,,,5fd0189eb30e9306837dc340,5fe192008929f0c3944d60f5,2020-12-22_00h29.17.449,FlowerSimilarity_Experiment,2020.1.2,Win32,60,5fe17d4a51f3a9c1a60f9869,,,,,,,,,,,,,,,,,,,1,FF,,7,1.13569,,,,,,,,,,,,,,,,,,,,,,,,,,,,,,,,,,29.80000859,68.29999644,1,0,0,response1disk,2,107,1.000008166,1.099995434,1,0,0,rectangle,1.000008166,1.099995434,1,0,0,3,2,"[287,127,99,139,210,112,64,117,202,245,50,5,121,4,210,125,323,210,177,80]",1.000008166,1.099995434,1,0,0,0,106,106,2,1,,,,,,,,,,,,,,,,,,,,,,,
,,,,,,,,,,,,,,,,,,,,,,,,,,,,,,,,,,,,,,,,,,,5fd0189eb30e9306837dc340,5fe192008929f0c3944d60f5,2020-12-22_00h29.17.449,FlowerSimilarity_Experiment,2020.1.2,Win32,60,5fe17d4a51f3a9c1a60f9869,,,,,,,,,,,,,,,,,,,9,FF,,7,0.92618,,,,,,,,,,,,,,,,,,,,,,,,,,,,,,,,,,26.60005738,76.29999655,1,0,0,response1disk,3,108,-2.999991894,-2.100004613,1,0,0,rectangle,-2.999991894,-2.100004613,1,0,0,3,6,"[287,127,99,139,210,112,64,117,202,245,50,5,121,4,210,125,323,210,177,80]",-2.999991894,-2.100004613,1,0,0,0,107,107,141,1,,,,,,,,,,,,,,,,,,,,,,,
,,,,,,,,,,,,,,,,,,,,,,,,,,,,,,,,,,,,,,,,,,,5fd0189eb30e9306837dc340,5fe192008929f0c3944d60f5,2020-12-22_00h29.17.449,FlowerSimilarity_Experiment,2020.1.2,Win32,60,5fe17d4a51f3a9c1a60f9869,,,,,,,,,,,,,,,,,,,6,FF,,7,0.892275,,,,,,,,,,,,,,,,,,,,,,,,,,,,,,,,,,22.60005732,72.2999965,1,0,0,response1disk,5,109,-2.199991882,7.49999553,1,0,0,rectangle,-2.199991882,7.49999553,1,0,0,3,3,"[287,127,99,139,210,112,64,117,202,245,50,5,121,4,210,125,323,210,177,80]",-2.199991882,7.49999553,1,0,0,0,108,108,126,1,,,,,,,,,,,,,,,,,,,,,,,
,,,,,,,,,,,,,,,,,,,,,,,,,,,,,,,,,,,,,,,,,,,5fd0189eb30e9306837dc340,5fe192008929f0c3944d60f5,2020-12-22_00h29.17.449,FlowerSimilarity_Experiment,2020.1.2,Win32,60,5fe17d4a51f3a9c1a60f9869,,,,,,,,,,,,,,,,,,,1,PF,,7,1.014665,,,,,,,,,,,,,,,,,,,,,,,,,,,,,,,,,,45.80000883,69.09999645,1,0,0,response1disk,2,110,1.800008178,3.49999547,1,0,0,rectangle,1.800008178,3.49999547,1,0,0,3,0,"[287,127,99,139,210,112,64,117,202,245,50,5,121,4,210,125,323,210,177,80]",1.800008178,3.49999547,1,0,0,0,109,109,24,1,,,,,,,,,,,,,,,,,,,,,,,
,,,,,,,,,,,,,,,,,,,,,,,,,,,,,,,,,,,,,,,,,,,5fd0189eb30e9306837dc340,5fe192008929f0c3944d60f5,2020-12-22_00h29.17.449,FlowerSimilarity_Experiment,2020.1.2,Win32,60,5fe17d4a51f3a9c1a60f9869,,,,,,,,,,,,,,,,,,,1,FF,,0,1.25726,,,,,,,,,,,,,,,,,,,,,,,,,,,,,,,,,,-24.59999222,69.89999646,1,0,0,response7disk,1,111,-3.799991906,-0.50000459,1,0,0,rectangle,-3.799991906,-0.50000459,1,0,0,3,6,"[287,127,99,139,210,112,64,117,202,245,50,5,121,4,210,125,323,210,177,80]",-3.799991906,-0.50000459,1,0,0,0,110,110,151,1,,,,,,,,,,,,,,,,,,,,,,,
,,,,,,,,,,,,,,,,,,,,,,,,,,,,,,,,,,,,,,,,,,,5fd0189eb30e9306837dc340,5fe192008929f0c3944d60f5,2020-12-22_00h29.17.449,FlowerSimilarity_Experiment,2020.1.2,Win32,60,5fe17d4a51f3a9c1a60f9869,,,,,,,,,,,,,,,,,,,3,PF,,7,1.008635,,,,,,,,,,,,,,,,,,,,,,,,,,,,,,,,,,25.80000854,59.4999963,1,0,0,response1disk,1,112,-11.79999202,-4.500004649,1,0,0,rectangle,-38.99999243,-74.9000057,1,0,0,3,3,"[287,127,99,139,210,112,64,117,202,245,50,5,121,4,210,125,323,210,177,80]",-6.999991953,-3.700004637,1,0,0,0,111,111,96,1,response5disk_3,rectangle,,,,,,,,,,,,,,,,,,,,,
,,,,,,,,,,,,,,,,,,,,,,,,,,,,,,,,,,,,,,,,,,,5fd0189eb30e9306837dc340,5fe192008929f0c3944d60f5,2020-12-22_00h29.17.449,FlowerSimilarity_Experiment,2020.1.2,Win32,60,5fe17d4a51f3a9c1a60f9869,,,,,,,,,,,,,,,,,,,9,PF,,7,1.212595,,,,,,,,,,,,,,,,,,,,,,,,,,,,,,,,,,32.20000863,70.69999647,1,0,0,response1disk,8,113,-7.799991965,3.49999547,1,0,0,rectangle,-7.799991965,3.49999547,1,0,0,3,0,"[287,127,99,139,210,112,64,117,202,245,50,5,121,4,210,125,323,210,177,80]",-7.799991965,3.49999547,1,0,0,0,112,112,67,1,,,,,,,,,,,,,,,,,,,,,,,
,,,,,,,,,,,,,,,,,,,,,,,,,,,,,,,,,,,,,,,,,,,5fd0189eb30e9306837dc340,5fe192008929f0c3944d60f5,2020-12-22_00h29.17.449,FlowerSimilarity_Experiment,2020.1.2,Win32,60,5fe17d4a51f3a9c1a60f9869,,,,,,,,,,,,,,,,,,,3,FF,,4,1.82254,,,,,,,,,,,,,,,,,,,,,,,,,,,,,,,,,,26.60005738,-88.5000059,1,0,0,response3disk,5,114,-17.39994328,-2.900004625,1,0,0,rectangle,-17.39994328,-2.900004625,1,0,0,3,0,"[287,127,99,139,210,112,64,117,202,245,50,5,121,4,210,125,323,210,177,80]",-17.39994328,-2.900004625,1,0,0,0,113,113,101,1,,,,,,,,,,,,,,,,,,,,,,,
,,,,,,,,,,,,,,,,,,,,,,,,,,,,,,,,,,,,,,,,,,,5fd0189eb30e9306837dc340,5fe192008929f0c3944d60f5,2020-12-22_00h29.17.449,FlowerSimilarity_Experiment,2020.1.2,Win32,60,5fe17d4a51f3a9c1a60f9869,,,,,,,,,,,,,,,,,,,8,FF,,0,1.288715,,,,,,,,,,,,,,,,,,,,,,,,,,,,,,,,,,-35.79999238,50.69997176,1,0,0,response7disk,8,115,-1.399943042,1.899995446,1,0,0,rectangle,-1.399943042,1.899995446,1,0,0,3,0,"[287,127,99,139,210,112,64,117,202,245,50,5,121,4,210,125,323,210,177,80]",-1.399943042,1.899995446,1,0,0,0,114,114,48,1,,,,,,,,,,,,,,,,,,,,,,,
,,,,,,,,,,,,,,,,,,,,,,,,,,,,,,,,,,,,,,,,,,,5fd0189eb30e9306837dc340,5fe192008929f0c3944d60f5,2020-12-22_00h29.17.449,FlowerSimilarity_Experiment,2020.1.2,Win32,60,5fe17d4a51f3a9c1a60f9869,,,,,,,,,,,,,,,,,,,3,FF,,4,2.184175,,,,,,,,,,,,,,,,,,,,,,,,,,,,,,,,,,22.60005732,-76.50000572,1,0,0,response3disk,8,116,-3.799991906,-6.900004685,1,0,0,rectangle,-3.799991906,-6.900004685,1,0,0,3,3,"[287,127,99,139,210,112,64,117,202,245,50,5,121,4,210,125,323,210,177,80]",-3.799991906,-6.900004685,1,0,0,0,115,115,44,1,,,,,,,,,,,,,,,,,,,,,,,
,,,,,,,,,,,,,,,,,,,,,,,,,,,,,,,,,,,,,,,,,,,5fd0189eb30e9306837dc340,5fe192008929f0c3944d60f5,2020-12-22_00h29.17.449,FlowerSimilarity_Experiment,2020.1.2,Win32,60,5fe17d4a51f3a9c1a60f9869,,,,,,,,,,,,,,,,,,,1,FF,,7,1.15914,,,,,,,,,,,,,,,,,,,,,,,,,,,,,,,,,,23.4000085,53.89999622,1,0,0,response1disk,8,117,-2.199991882,3.49999547,1,0,0,rectangle,57.000009,-22.90000492,1,0,0,5,5,"[287,127,99,139,210,112,64,117,202,245,50,5,121,4,210,125,323,210,177,80]",-5.399943101,2.699971044,1,0,0,0,116,116,27,1,response3disk_3,rectangle,,,,,,,,,,,,,,,,,,,,,
,,,,,,,,,,,,,,,,,,,,,,,,,,,,,,,,,,,,,,,,,,,5fd0189eb30e9306837dc340,5fe192008929f0c3944d60f5,2020-12-22_00h29.17.449,FlowerSimilarity_Experiment,2020.1.2,Win32,60,5fe17d4a51f3a9c1a60f9869,,,,,,,,,,,,,,,,,,,3,FF,,7,1.42423,,,,,,,,,,,,,,,,,,,,,,,,,,,,,,,,,,25.80000854,73.89999652,1,0,0,response1disk,2,118,-1.399943042,3.49999547,1,0,0,rectangle,-1.399943042,3.49999547,1,0,0,5,2,"[287,127,99,139,210,112,64,117,202,245,50,5,121,4,210,125,323,210,177,80]",-1.399943042,3.49999547,1,0,0,0,117,117,93,1,,,,,,,,,,,,,,,,,,,,,,,
,,,,,,,,,,,,,,,,,,,,,,,,,,,,,,,,,,,,,,,,,,,5fd0189eb30e9306837dc340,5fe192008929f0c3944d60f5,2020-12-22_00h29.17.449,FlowerSimilarity_Experiment,2020.1.2,Win32,60,5fe17d4a51f3a9c1a60f9869,,,,,,,,,,,,,,,,,,,5,FF,,7,1.006045,,,,,,,,,,,,,,,,,,,,,,,,,,,,,,,,,,23.4000085,72.2999965,1,0,0,response1disk,9,119,-10.99999201,-2.900004625,1,0,0,rectangle,-10.99999201,-2.900004625,1,0,0,5,5,"[287,127,99,139,210,112,64,117,202,245,50,5,121,4,210,125,323,210,177,80]",-10.99999201,-2.900004625,1,0,0,0,118,118,61,1,,,,,,,,,,,,,,,,,,,,,,,
,,,,,,,,,,,,,,,,,,,,,,,,,,,,,,,,,,,,,,,,,,,5fd0189eb30e9306837dc340,5fe192008929f0c3944d60f5,2020-12-22_00h29.17.449,FlowerSimilarity_Experiment,2020.1.2,Win32,60,5fe17d4a51f3a9c1a60f9869,,,,,,,,,,,,,,,,,,,6,PF,,7,0.954015,,,,,,,,,,,,,,,,,,,,,,,,,,,,,,,,,,25.00000852,45.8999961,1,0,0,response1disk,2,120,-10.99999201,-6.100004673,1,0,0,rectangle,-10.99999201,-6.100004673,1,0,0,5,7,"[287,127,99,139,210,112,64,117,202,245,50,5,121,4,210,125,323,210,177,80]",-10.99999201,-6.100004673,1,0,0,0,119,119,130,1,,,,,,,,,,,,,,,,,,,,,,,
,,,,,,,,,,,,,,,,,,,,,,,,,,,,,,,,,,,,,,,,,,,5fd0189eb30e9306837dc340,5fe192008929f0c3944d60f5,2020-12-22_00h29.17.449,FlowerSimilarity_Experiment,2020.1.2,Win32,60,5fe17d4a51f3a9c1a60f9869,,,,,,,,,,,,,,,,,,,7,PF,,2,2.238105,,,,,,,,,,,,,,,,,,,,,,,,,,,,,,,,,,-75.79999298,-33.30002949,1,0,0,response5disk,3,121,-2.999991894,-5.300029075,1,0,0,rectangle,-78.19999301,28.29999584,1,0,0,1,1,"[287,127,99,139,210,112,64,117,202,245,50,5,121,4,210,125,323,210,177,80]",-2.999991894,-1.300029016,1,0,0,0,120,120,81,1,response7disk_3,rectangle,,,,,,,,,,,,,,,,,,,,,
,,,,,,,,,,,,,,,,,,,,,,,,,,,,,,,,,,,,,,,,,,,5fd0189eb30e9306837dc340,5fe192008929f0c3944d60f5,2020-12-22_00h29.17.449,FlowerSimilarity_Experiment,2020.1.2,Win32,60,5fe17d4a51f3a9c1a60f9869,,,,,,,,,,,,,,,,,,,8,PF,,7,1.104675,,,,,,,,,,,,,,,,,,,,,,,,,,,,,,,,,,30.60005744,67.49999642,1,0,0,response1disk,9,122,-1.399943042,5.099995494,1,0,0,rectangle,-1.399943042,5.099995494,1,0,0,1,2,"[287,127,99,139,210,112,64,117,202,245,50,5,121,4,210,125,323,210,177,80]",-1.399943042,5.099995494,1,0,0,0,121,121,42,1,,,,,,,,,,,,,,,,,,,,,,,
,,,,,,,,,,,,,,,,,,,,,,,,,,,,,,,,,,,,,,,,,,,5fd0189eb30e9306837dc340,5fe192008929f0c3944d60f5,2020-12-22_00h29.17.449,FlowerSimilarity_Experiment,2020.1.2,Win32,60,5fe17d4a51f3a9c1a60f9869,,,,,,,,,,,,,,,,,,,1,PF,,7,0.96564,,,,,,,,,,,,,,,,,,,,,,,,,,,,,,,,,,23.4000085,58.69999629,1,0,0,response1disk,4,123,-7.799991965,-5.300029075,1,0,0,rectangle,-7.799991965,-5.300029075,1,0,0,1,3,"[287,127,99,139,210,112,64,117,202,245,50,5,121,4,210,125,323,210,177,80]",-7.799991965,-5.300029075,1,0,0,0,122,122,139,1,,,,,,,,,,,,,,,,,,,,,,,
,,,,,,,,,,,,,,,,,,,,,,,,,,,,,,,,,,,,,,,,,,,5fd0189eb30e9306837dc340,5fe192008929f0c3944d60f5,2020-12-22_00h29.17.449,FlowerSimilarity_Experiment,2020.1.2,Win32,60,5fe17d4a51f3a9c1a60f9869,,,,,,,,,,,,,,,,,,,6,FF,,7,0.86661,,,,,,,,,,,,,,,,,,,,,,,,,,,,,,,,,,31.40000862,61.09999633,1,0,0,response1disk,3,124,-3.799991906,0.299995422,1,0,0,rectangle,-3.799991906,0.299995422,1,0,0,1,4,"[287,127,99,139,210,112,64,117,202,245,50,5,121,4,210,125,323,210,177,80]",-3.799991906,0.299995422,1,0,0,0,123,123,21,1,,,,,,,,,,,,,,,,,,,,,,,
,,,,,,,,,,,,,,,,,,,,,,,,,,,,,,,,,,,,,,,,,,,5fd0189eb30e9306837dc340,5fe192008929f0c3944d60f5,2020-12-22_00h29.17.449,FlowerSimilarity_Experiment,2020.1.2,Win32,60,5fe17d4a51f3a9c1a60f9869,,,,,,,,,,,,,,,,,,,9,FF,,2,1.78735,,,,,,,,,,,,,,,,,,,,,,,,,,,,,,,,,,-72.59999293,-18.90000486,1,0,0,response5disk,1,125,-9.399943161,1.899995446,1,0,0,rectangle,-89.39999318,-45.30002967,1,0,0,1,2,"[287,127,99,139,210,112,64,117,202,245,50,5,121,4,210,125,323,210,177,80]",-4.599991918,4.299995482,1,0,0,0,124,124,111,1,response5disk_3,rectangle,,,,,,,,,,,,,,,,,,,,,
,,,,,,,,,,,,,,,,,,,,,,,,,,,,,,,,,,,,,,,,,,,5fd0189eb30e9306837dc340,5fe192008929f0c3944d60f5,2020-12-22_00h29.17.449,FlowerSimilarity_Experiment,2020.1.2,Win32,60,5fe17d4a51f3a9c1a60f9869,,,,,,,,,,,,,,,,,,,4,PF,,6,5.451235,,,,,,,,,,,,,,,,,,,,,,,,,,,,,,,,,,67.40000916,42.69997164,1,0,0,response1disk,2,126,-3.799991906,10.69997116,1,0,0,rectangle,-3.799991906,10.69997116,1,0,0,1,7,"[287,127,99,139,210,112,64,117,202,245,50,5,121,4,210,125,323,210,177,80]",-3.799991906,10.69997116,1,0,0,0,125,125,108,1,,,,,,,,,,,,,,,,,,,,,,,
,,,,,,,,,,,,,,,,,,,,,,,,,,,,,,,,,,,,,,,,,,,5fd0189eb30e9306837dc340,5fe192008929f0c3944d60f5,2020-12-22_00h29.17.449,FlowerSimilarity_Experiment,2020.1.2,Win32,60,5fe17d4a51f3a9c1a60f9869,,,,,,,,,,,,,,,,,,,1,PF,,7,1.27082,,,,,,,,,,,,,,,,,,,,,,,,,,,,,,,,,,33.00000864,67.49999642,1,0,0,response1disk,3,127,-4.599991918,1.899995446,1,0,0,rectangle,-38.99999243,-86.10000587,1,0,0,3,3,"[287,127,99,139,210,112,64,117,202,245,50,5,121,4,210,125,323,210,177,80]",1.800008178,-3.700004637,1,0,0,0,126,126,1,1,response5disk_3,rectangle,,,,,,,,,,,,,,,,,,,,,
,,,,,,,,,,,,,,,,,,,,,,,,,,,,,,,,,,,,,,,,,,,5fd0189eb30e9306837dc340,5fe192008929f0c3944d60f5,2020-12-22_00h29.17.449,FlowerSimilarity_Experiment,2020.1.2,Win32,60,5fe17d4a51f3a9c1a60f9869,,,,,,,,,,,,,,,,,,,8,FF,,7,1.22193,,,,,,,,,,,,,,,,,,,,,,,,,,,,,,,,,,39.40000874,84.29999667,1,0,0,response1disk,1,128,-0.599991858,-2.100004613,1,0,0,rectangle,-0.599991858,-2.100004613,1,0,0,3,6,"[287,127,99,139,210,112,64,117,202,245,50,5,121,4,210,125,323,210,177,80]",-0.599991858,-2.100004613,1,0,0,0,127,127,20,1,,,,,,,,,,,,,,,,,,,,,,,
,,,,,,,,,,,,,,,,,,,,,,,,,,,,,,,,,,,,,,,,,,,5fd0189eb30e9306837dc340,5fe192008929f0c3944d60f5,2020-12-22_00h29.17.449,FlowerSimilarity_Experiment,2020.1.2,Win32,60,5fe17d4a51f3a9c1a60f9869,,,,,,,,,,,,,,,,,,,6,FF,,3,1.509665,,,,,,,,,,,,,,,,,,,,,,,,,,,,,,,,,,-48.59999257,-76.50000572,1,0,0,response5disk,1,129,1.800008178,4.299995482,1,0,0,rectangle,1.800008178,4.299995482,1,0,0,3,2,"[287,127,99,139,210,112,64,117,202,245,50,5,121,4,210,125,323,210,177,80]",1.800008178,4.299995482,1,0,0,0,128,128,5,1,,,,,,,,,,,,,,,,,,,,,,,
,,,,,,,,,,,,,,,,,,,,,,,,,,,,,,,,,,,,,,,,,,,5fd0189eb30e9306837dc340,5fe192008929f0c3944d60f5,2020-12-22_00h29.17.449,FlowerSimilarity_Experiment,2020.1.2,Win32,60,5fe17d4a51f3a9c1a60f9869,,,,,,,,,,,,,,,,,,,3,PF,,1,2.523245,,,,,,,,,,,,,,,,,,,,,,,,,,,,,,,,,,-64.59999281,30.69997146,1,0,0,response7disk,7,130,-1.399943042,4.299995482,1,0,0,rectangle,-1.399943042,4.299995482,1,0,0,3,1,"[287,127,99,139,210,112,64,117,202,245,50,5,121,4,210,125,323,210,177,80]",-1.399943042,4.299995482,1,0,0,0,129,129,41,1,,,,,,,,,,,,,,,,,,,,,,,
,,,,,,,,,,,,,,,,,,,,,,,,,,,,,,,,,,,,,,,,,,,5fd0189eb30e9306837dc340,5fe192008929f0c3944d60f5,2020-12-22_00h29.17.449,FlowerSimilarity_Experiment,2020.1.2,Win32,60,5fe17d4a51f3a9c1a60f9869,,,,,,,,,,,,,,,,,,,3,PF,,7,1.359485,,,,,,,,,,,,,,,,,,,,,,,,,,,,,,,,,,29.00000858,82.69999665,1,0,0,response1disk,6,131,0.200008154,2.699971044,1,0,0,rectangle,0.200008154,2.699971044,1,0,0,3,0,"[287,127,99,139,210,112,64,117,202,245,50,5,121,4,210,125,323,210,177,80]",0.200008154,2.699971044,1,0,0,0,130,130,47,1,,,,,,,,,,,,,,,,,,,,,,,
,,,,,,,,,,,,,,,,,,,,,,,,,,,,,,,,,,,,,,,,,,,5fd0189eb30e9306837dc340,5fe192008929f0c3944d60f5,2020-12-22_00h29.17.449,FlowerSimilarity_Experiment,2020.1.2,Win32,60,5fe17d4a51f3a9c1a60f9869,,,,,,,,,,,,,,,,,,,5,FF,,0,1.38456,,,,,,,,,,,,,,,,,,,,,,,,,,,,,,,,,,-34.99999237,53.89999622,1,0,0,response7disk,8,132,-17.39994328,-1.300029016,1,0,0,rectangle,-17.39994328,-1.300029016,1,0,0,3,0,"[287,127,99,139,210,112,64,117,202,245,50,5,121,4,210,125,323,210,177,80]",-17.39994328,-1.300029016,1,0,0,0,131,131,16,1,,,,,,,,,,,,,,,,,,,,,,,
,,,,,,,,,,,,,,,,,,,,,,,,,,,,,,,,,,,,,,,,,,,5fd0189eb30e9306837dc340,5fe192008929f0c3944d60f5,2020-12-22_00h29.17.449,FlowerSimilarity_Experiment,2020.1.2,Win32,60,5fe17d4a51f3a9c1a60f9869,,,,,,,,,,,,,,,,,,,2,PF,,7,1.194315,,,,,,,,,,,,,,,,,,,,,,,,,,,,,,,,,,25.80000854,45.8999961,1,0,0,response1disk,1,133,-7.799991965,1.899995446,1,0,0,rectangle,-7.799991965,1.899995446,1,0,0,3,3,"[287,127,99,139,210,112,64,117,202,245,50,5,121,4,210,125,323,210,177,80]",-7.799991965,1.899995446,1,0,0,0,132,132,9,1,,,,,,,,,,,,,,,,,,,,,,,
,,,,,,,,,,,,,,,,,,,,,,,,,,,,,,,,,,,,,,,,,,,5fd0189eb30e9306837dc340,5fe192008929f0c3944d60f5,2020-12-22_00h29.17.449,FlowerSimilarity_Experiment,2020.1.2,Win32,60,5fe17d4a51f3a9c1a60f9869,,,,,,,,,,,,,,,,,,,4,FF,,6,2.32141,,,,,,,,,,,,,,,,,,,,,,,,,,,,,,,,,,58.60005785,37.09999597,1,0,0,response1disk,2,134,-4.599991918,-1.300029016,1,0,0,rectangle,-4.599991918,-1.300029016,1,0,0,3,5,"[287,127,99,139,210,112,64,117,202,245,50,5,121,4,210,125,323,210,177,80]",-4.599991918,-1.300029016,1,0,0,0,133,133,13,1,,,,,,,,,,,,,,,,,,,,,,,
,,,,,,,,,,,,,,,,,,,,,,,,,,,,,,,,,,,,,,,,,,,5fd0189eb30e9306837dc340,5fe192008929f0c3944d60f5,2020-12-22_00h29.17.449,FlowerSimilarity_Experiment,2020.1.2,Win32,60,5fe17d4a51f3a9c1a60f9869,,,,,,,,,,,,,,,,,,,6,FF,,7,1.09167,,,,,,,,,,,,,,,,,,,,,,,,,,,,,,,,,,24.20000851,74.69999653,1,0,0,response1disk,2,135,-10.99999201,-3.700004637,1,0,0,rectangle,-10.99999201,-3.700004637,1,0,0,3,6,"[287,127,99,139,210,112,64,117,202,245,50,5,121,4,210,125,323,210,177,80]",-10.99999201,-3.700004637,1,0,0,0,134,134,112,1,,,,,,,,,,,,,,,,,,,,,,,
,,,,,,,,,,,,,,,,,,,,,,,,,,,,,,,,,,,,,,,,,,,5fd0189eb30e9306837dc340,5fe192008929f0c3944d60f5,2020-12-22_00h29.17.449,FlowerSimilarity_Experiment,2020.1.2,Win32,60,5fe17d4a51f3a9c1a60f9869,,,,,,,,,,,,,,,,,,,4,FF,,4,2.674025,,,,,,,,,,,,,,,,,,,,,,,,,,,,,,,,,,47.40000886,-74.9000057,1,0,0,response3disk,3,136,1.000008166,4.299995482,1,0,0,rectangle,1.000008166,4.299995482,1,0,0,3,2,"[287,127,99,139,210,112,64,117,202,245,50,5,121,4,210,125,323,210,177,80]",1.000008166,4.299995482,1,0,0,0,135,135,77,1,,,,,,,,,,,,,,,,,,,,,,,
,,,,,,,,,,,,,,,,,,,,,,,,,,,,,,,,,,,,,,,,,,,5fd0189eb30e9306837dc340,5fe192008929f0c3944d60f5,2020-12-22_00h29.17.449,FlowerSimilarity_Experiment,2020.1.2,Win32,60,5fe17d4a51f3a9c1a60f9869,,,,,,,,,,,,,,,,,,,5,PF,,7,1.099295,,,,,,,,,,,,,,,,,,,,,,,,,,,,,,,,,,20.20000845,55.49999624,1,0,0,response1disk,6,137,-2.999991894,9.099995553,1,0,0,rectangle,-2.999991894,9.099995553,1,0,0,3,5,"[287,127,99,139,210,112,64,117,202,245,50,5,121,4,210,125,323,210,177,80]",-2.999991894,9.099995553,1,0,0,0,136,136,103,1,,,,,,,,,,,,,,,,,,,,,,,
,,,,,,,,,,,,,,,,,,,,,,,,,,,,,,,,,,,,,,,,,,,5fd0189eb30e9306837dc340,5fe192008929f0c3944d60f5,2020-12-22_00h29.17.449,FlowerSimilarity_Experiment,2020.1.2,Win32,60,5fe17d4a51f3a9c1a60f9869,,,,,,,,,,,,,,,,,,,4,PF,,7,0.986305,,,,,,,,,,,,,,,,,,,,,,,,,,,,,,,,,,26.60005738,59.4999963,1,0,0,response1disk,9,138,-9.399943161,9.899995565,1,0,0,rectangle,-9.399943161,9.899995565,1,0,0,3,5,"[287,127,99,139,210,112,64,117,202,245,50,5,121,4,210,125,323,210,177,80]",-9.399943161,9.899995565,1,0,0,0,137,137,75,1,,,,,,,,,,,,,,,,,,,,,,,
,,,,,,,,,,,,,,,,,,,,,,,,,,,,,,,,,,,,,,,,,,,5fd0189eb30e9306837dc340,5fe192008929f0c3944d60f5,2020-12-22_00h29.17.449,FlowerSimilarity_Experiment,2020.1.2,Win32,60,5fe17d4a51f3a9c1a60f9869,,,,,,,,,,,,,,,,,,,5,FF,,7,0.9043,,,,,,,,,,,,,,,,,,,,,,,,,,,,,,,,,,29.80000859,69.09999645,1,0,0,response1disk,6,139,0.200008154,1.899995446,1,0,0,rectangle,20.20000845,65.8999964,1,0,0,7,7,"[287,127,99,139,210,112,64,117,202,245,50,5,121,4,210,125,323,210,177,80]",-6.999991953,5.099995494,1,0,0,0,138,138,12,1,response1disk_3,rectangle,,,,,,,,,,,,,,,,,,,,,
,,,,,,,,,,,,,,,,,,,,,,,,,,,,,,,,,,,,,,,,,,,5fd0189eb30e9306837dc340,5fe192008929f0c3944d60f5,2020-12-22_00h29.17.449,FlowerSimilarity_Experiment,2020.1.2,Win32,60,5fe17d4a51f3a9c1a60f9869,,,,,,,,,,,,,,,,,,,7,PF,,7,0.905675,,,,,,,,,,,,,,,,,,,,,,,,,,,,,,,,,,32.20000863,77.09999657,1,0,0,response1disk,9,140,-2.199991882,1.899995446,1,0,0,rectangle,-2.199991882,1.899995446,1,0,0,7,1,"[287,127,99,139,210,112,64,117,202,245,50,5,121,4,210,125,323,210,177,80]",-2.199991882,1.899995446,1,0,0,0,139,139,10,1,,,,,,,,,,,,,,,,,,,,,,,
,,,,,,,,,,,,,,,,,,,,,,,,,,,,,,,,,,,,,,,,,,,5fd0189eb30e9306837dc340,5fe192008929f0c3944d60f5,2020-12-22_00h29.17.449,FlowerSimilarity_Experiment,2020.1.2,Win32,60,5fe17d4a51f3a9c1a60f9869,,,,,,,,,,,,,,,,,,,9,FF,,7,1.063785,,,,,,,,,,,,,,,,,,,,,,,,,,,,,,,,,,32.20000863,50.69997176,1,0,0,response1disk,4,141,-2.199991882,1.099995434,1,0,0,rectangle,-2.199991882,1.099995434,1,0,0,7,6,"[287,127,99,139,210,112,64,117,202,245,50,5,121,4,210,125,323,210,177,80]",-2.199991882,1.099995434,1,0,0,0,140,140,60,1,,,,,,,,,,,,,,,,,,,,,,,
,,,,,,,,,,,,,,,,,,,,,,,,,,,,,,,,,,,,,,,,,,,5fd0189eb30e9306837dc340,5fe192008929f0c3944d60f5,2020-12-22_00h29.17.449,FlowerSimilarity_Experiment,2020.1.2,Win32,60,5fe17d4a51f3a9c1a60f9869,,,,,,,,,,,,,,,,,,,7,FF,,6,2.50892,,,,,,,,,,,,,,,,,,,,,,,,,,,,,,,,,,57.80000901,52.2999962,1,0,0,response1disk,4,142,-1.399943042,-0.50000459,1,0,0,rectangle,-1.399943042,-0.50000459,1,0,0,7,2,"[287,127,99,139,210,112,64,117,202,245,50,5,121,4,210,125,323,210,177,80]",-1.399943042,-0.50000459,1,0,0,0,141,141,158,1,,,,,,,,,,,,,,,,,,,,,,,
,,,,,,,,,,,,,,,,,,,,,,,,,,,,,,,,,,,,,,,,,,,5fd0189eb30e9306837dc340,5fe192008929f0c3944d60f5,2020-12-22_00h29.17.449,FlowerSimilarity_Experiment,2020.1.2,Win32,60,5fe17d4a51f3a9c1a60f9869,,,,,,,,,,,,,,,,,,,2,FF,,7,1.223635,,,,,,,,,,,,,,,,,,,,,,,,,,,,,,,,,,32.20000863,77.89999658,1,0,0,response1disk,4,143,-11.79999202,5.099995494,1,0,0,rectangle,-11.79999202,5.099995494,1,0,0,7,4,"[287,127,99,139,210,112,64,117,202,245,50,5,121,4,210,125,323,210,177,80]",-11.79999202,5.099995494,1,0,0,0,142,142,145,1,,,,,,,,,,,,,,,,,,,,,,,
,,,,,,,,,,,,,,,,,,,,,,,,,,,,,,,,,,,,,,,,,,,5fd0189eb30e9306837dc340,5fe192008929f0c3944d60f5,2020-12-22_00h29.17.449,FlowerSimilarity_Experiment,2020.1.2,Win32,60,5fe17d4a51f3a9c1a60f9869,,,,,,,,,,,,,,,,,,,6,FF,,7,1.25341,,,,,,,,,,,,,,,,,,,,,,,,,,,,,,,,,,29.00000858,54.69999623,1,0,0,response1disk,4,144,1.800008178,-5.300029075,1,0,0,rectangle,1.800008178,-5.300029075,1,0,0,7,1,"[287,127,99,139,210,112,64,117,202,245,50,5,121,4,210,125,323,210,177,80]",1.800008178,-5.300029075,1,0,0,0,143,143,56,1,,,,,,,,,,,,,,,,,,,,,,,
,,,,,,,,,,,,,,,,,,,,,,,,,,,,,,,,,,,,,,,,,,,5fd0189eb30e9306837dc340,5fe192008929f0c3944d60f5,2020-12-22_00h29.17.449,FlowerSimilarity_Experiment,2020.1.2,Win32,60,5fe17d4a51f3a9c1a60f9869,,,,,,,,,,,,,,,,,,,1,FF,,7,0.99077,,,,,,,,,,,,,,,,,,,,,,,,,,,,,,,,,,22.60005732,73.89999652,1,0,0,response1disk,5,145,-5.399943101,-7.700004697,1,0,0,rectangle,-5.399943101,-7.700004697,1,0,0,7,1,"[287,127,99,139,210,112,64,117,202,245,50,5,121,4,210,125,323,210,177,80]",-5.399943101,-7.700004697,1,0,0,0,144,144,82,1,,,,,,,,,,,,,,,,,,,,,,,
,,,,,,,,,,,,,,,,,,,,,,,,,,,,,,,,,,,,,,,,,,,5fd0189eb30e9306837dc340,5fe192008929f0c3944d60f5,2020-12-22_00h29.17.449,FlowerSimilarity_Experiment,2020.1.2,Win32,60,5fe17d4a51f3a9c1a60f9869,,,,,,,,,,,,,,,,,,,1,PF,,7,0.96126,,,,,,,,,,,,,,,,,,,,,,,,,,,,,,,,,,33.00000864,57.09999627,1,0,0,response1disk,5,146,1.000008166,3.49999547,1,0,0,rectangle,1.000008166,3.49999547,1,0,0,7,1,"[287,127,99,139,210,112,64,117,202,245,50,5,121,4,210,125,323,210,177,80]",1.000008166,3.49999547,1,0,0,0,145,145,28,1,,,,,,,,,,,,,,,,,,,,,,,
,,,,,,,,,,,,,,,,,,,,,,,,,,,,,,,,,,,,,,,,,,,5fd0189eb30e9306837dc340,5fe192008929f0c3944d60f5,2020-12-22_00h29.17.449,FlowerSimilarity_Experiment,2020.1.2,Win32,60,5fe17d4a51f3a9c1a60f9869,,,,,,,,,,,,,,,,,,,2,PF,,6,1.667485,,,,,,,,,,,,,,,,,,,,,,,,,,,,,,,,,,66.60005797,40.29999602,1,0,0,response1disk,4,147,1.000008166,-5.300029075,1,0,0,rectangle,1.000008166,-5.300029075,1,0,0,7,6,"[287,127,99,139,210,112,64,117,202,245,50,5,121,4,210,125,323,210,177,80]",1.000008166,-5.300029075,1,0,0,0,146,146,127,1,,,,,,,,,,,,,,,,,,,,,,,
,,,,,,,,,,,,,,,,,,,,,,,,,,,,,,,,,,,,,,,,,,,5fd0189eb30e9306837dc340,5fe192008929f0c3944d60f5,2020-12-22_00h29.17.449,FlowerSimilarity_Experiment,2020.1.2,Win32,60,5fe17d4a51f3a9c1a60f9869,,,,,,,,,,,,,,,,,,,1,FF,,7,1.44739,,,,,,,,,,,,,,,,,,,,,,,,,,,,,,,,,,32.20000863,56.29999626,1,0,0,response1disk,6,148,4.200008214,2.699971044,1,0,0,rectangle,4.200008214,2.699971044,1,0,0,7,0,"[287,127,99,139,210,112,64,117,202,245,50,5,121,4,210,125,323,210,177,80]",4.200008214,2.699971044,1,0,0,0,147,147,58,1,,,,,,,,,,,,,,,,,,,,,,,
,,,,,,,,,,,,,,,,,,,,,,,,,,,,,,,,,,,,,,,,,,,5fd0189eb30e9306837dc340,5fe192008929f0c3944d60f5,2020-12-22_00h29.17.449,FlowerSimilarity_Experiment,2020.1.2,Win32,60,5fe17d4a51f3a9c1a60f9869,,,,,,,,,,,,,,,,,,,8,FF,,7,0.84754,,,,,,,,,,,,,,,,,,,,,,,,,,,,,,,,,,37.0000087,66.69999641,1,0,0,response1disk,2,149,-0.599991858,4.299995482,1,0,0,rectangle,-0.599991858,4.299995482,1,0,0,7,3,"[287,127,99,139,210,112,64,117,202,245,50,5,121,4,210,125,323,210,177,80]",-0.599991858,4.299995482,1,0,0,0,148,148,22,1,,,,,,,,,,,,,,,,,,,,,,,
,,,,,,,,,,,,,,,,,,,,,,,,,,,,,,,,,,,,,,,,,,,5fd0189eb30e9306837dc340,5fe192008929f0c3944d60f5,2020-12-22_00h29.17.449,FlowerSimilarity_Experiment,2020.1.2,Win32,60,5fe17d4a51f3a9c1a60f9869,,,,,,,,,,,,,,,,,,,3,PF,,7,1.11548,,,,,,,,,,,,,,,,,,,,,,,,,,,,,,,,,,41.80000877,64.29999638,1,0,0,response1disk,4,150,-5.399943101,-2.900004625,1,0,0,rectangle,-5.399943101,-2.900004625,1,0,0,7,0,"[287,127,99,139,210,112,64,117,202,245,50,5,121,4,210,125,323,210,177,80]",-5.399943101,-2.900004625,1,0,0,0,149,149,30,1,,,,,,,,,,,,,,,,,,,,,,,
,,,,,,,,,,,,,,,,,,,,,,,,,,,,,,,,,,,,,,,,,,,5fd0189eb30e9306837dc340,5fe192008929f0c3944d60f5,2020-12-22_00h29.17.449,FlowerSimilarity_Experiment,2020.1.2,Win32,60,5fe17d4a51f3a9c1a60f9869,,,,,,,,,,,,,,,,,,,9,FF,,6,1.537005,,,,,,,,,,,,,,,,,,,,,,,,,,,,,,,,,,60.20000905,32.2999959,1,0,0,response1disk,6,151,-10.99999201,-0.50000459,1,0,0,rectangle,-10.99999201,-0.50000459,1,0,0,7,0,"[287,127,99,139,210,112,64,117,202,245,50,5,121,4,210,125,323,210,177,80]",-10.99999201,-0.50000459,1,0,0,0,150,150,117,1,,,,,,,,,,,,,,,,,,,,,,,
,,,,,,,,,,,,,,,,,,,,,,,,,,,,,,,,,,,,,,,,,,,5fd0189eb30e9306837dc340,5fe192008929f0c3944d60f5,2020-12-22_00h29.17.449,FlowerSimilarity_Experiment,2020.1.2,Win32,60,5fe17d4a51f3a9c1a60f9869,,,,,,,,,,,,,,,,,,,7,PF,,7,1.02406,,,,,,,,,,,,,,,,,,,,,,,,,,,,,,,,,,29.80000859,74.69999653,1,0,0,response1disk,8,152,-5.399943101,-2.100004613,1,0,0,rectangle,-5.399943101,-2.100004613,1,0,0,7,3,"[287,127,99,139,210,112,64,117,202,245,50,5,121,4,210,125,323,210,177,80]",-5.399943101,-2.100004613,1,0,0,0,151,151,140,1,,,,,,,,,,,,,,,,,,,,,,,
,,,,,,,,,,,,,,,,,,,,,,,,,,,,,,,,,,,,,,,,,,,5fd0189eb30e9306837dc340,5fe192008929f0c3944d60f5,2020-12-22_00h29.17.449,FlowerSimilarity_Experiment,2020.1.2,Win32,60,5fe17d4a51f3a9c1a60f9869,,,,,,,,,,,,,,,,,,,6,FF,,7,1.22859,,,,,,,,,,,,,,,,,,,,,,,,,,,,,,,,,,31.40000862,77.89999658,1,0,0,response1disk,7,153,-2.999991894,9.099995553,1,0,0,rectangle,-2.999991894,9.099995553,1,0,0,7,5,"[287,127,99,139,210,112,64,117,202,245,50,5,121,4,210,125,323,210,177,80]",-2.999991894,9.099995553,1,0,0,0,152,152,18,1,,,,,,,,,,,,,,,,,,,,,,,
,,,,,,,,,,,,,,,,,,,,,,,,,,,,,,,,,,,,,,,,,,,5fd0189eb30e9306837dc340,5fe192008929f0c3944d60f5,2020-12-22_00h29.17.449,FlowerSimilarity_Experiment,2020.1.2,Win32,60,5fe17d4a51f3a9c1a60f9869,,,,,,,,,,,,,,,,,,,7,FF,,7,0.92967,,,,,,,,,,,,,,,,,,,,,,,,,,,,,,,,,,35.40000868,69.09999645,1,0,0,response1disk,1,154,-13.39994322,1.899995446,1,0,0,rectangle,-13.39994322,1.899995446,1,0,0,7,2,"[287,127,99,139,210,112,64,117,202,245,50,5,121,4,210,125,323,210,177,80]",-13.39994322,1.899995446,1,0,0,0,153,153,132,1,,,,,,,,,,,,,,,,,,,,,,,
,,,,,,,,,,,,,,,,,,,,,,,,,,,,,,,,,,,,,,,,,,,5fd0189eb30e9306837dc340,5fe192008929f0c3944d60f5,2020-12-22_00h29.17.449,FlowerSimilarity_Experiment,2020.1.2,Win32,60,5fe17d4a51f3a9c1a60f9869,,,,,,,,,,,,,,,,,,,9,FF,,7,1.203465,,,,,,,,,,,,,,,,,,,,,,,,,,,,,,,,,,34.60005749,65.09999639,1,0,0,response1disk,8,155,1.000008166,1.099995434,1,0,0,rectangle,1.000008166,1.099995434,1,0,0,7,3,"[287,127,99,139,210,112,64,117,202,245,50,5,121,4,210,125,323,210,177,80]",1.000008166,1.099995434,1,0,0,0,154,154,6,1,,,,,,,,,,,,,,,,,,,,,,,
,,,,,,,,,,,,,,,,,,,,,,,,,,,,,,,,,,,,,,,,,,,5fd0189eb30e9306837dc340,5fe192008929f0c3944d60f5,2020-12-22_00h29.17.449,FlowerSimilarity_Experiment,2020.1.2,Win32,60,5fe17d4a51f3a9c1a60f9869,,,,,,,,,,,,,,,,,,,1,FF,,7,1.04127,,,,,,,,,,,,,,,,,,,,,,,,,,,,,,,,,,32.20000863,72.2999965,1,0,0,response1disk,3,156,-4.599991918,-2.100004613,1,0,0,rectangle,-4.599991918,-2.100004613,1,0,0,7,3,"[287,127,99,139,210,112,64,117,202,245,50,5,121,4,210,125,323,210,177,80]",-4.599991918,-2.100004613,1,0,0,0,155,155,99,1,,,,,,,,,,,,,,,,,,,,,,,
,,,,,,,,,,,,,,,,,,,,,,,,,,,,,,,,,,,,,,,,,,,5fd0189eb30e9306837dc340,5fe192008929f0c3944d60f5,2020-12-22_00h29.17.449,FlowerSimilarity_Experiment,2020.1.2,Win32,60,5fe17d4a51f3a9c1a60f9869,,,,,,,,,,,,,,,,,,,4,PF,,5,2.055835,,,,,,,,,,,,,,,,,,,,,,,,,,,,,,,,,,65.00000912,-33.30002949,1,0,0,response3disk,3,157,-8.599991977,1.099995434,1,0,0,rectangle,-8.599991977,1.099995434,1,0,0,7,2,"[287,127,99,139,210,112,64,117,202,245,50,5,121,4,210,125,323,210,177,80]",-8.599991977,1.099995434,1,0,0,0,156,156,89,1,,,,,,,,,,,,,,,,,,,,,,,
,,,,,,,,,,,,,,,,,,,,,,,,,,,,,,,,,,,,,,,,,,,5fd0189eb30e9306837dc340,5fe192008929f0c3944d60f5,2020-12-22_00h29.17.449,FlowerSimilarity_Experiment,2020.1.2,Win32,60,5fe17d4a51f3a9c1a60f9869,,,,,,,,,,,,,,,,,,,2,FF,,7,1.049665,,,,,,,,,,,,,,,,,,,,,,,,,,,,,,,,,,34.60005749,71.49999648,1,0,0,response1disk,5,158,-7.799991965,1.899995446,1,0,0,rectangle,-7.799991965,1.899995446,1,0,0,7,3,"[287,127,99,139,210,112,64,117,202,245,50,5,121,4,210,125,323,210,177,80]",-7.799991965,1.899995446,1,0,0,0,157,157,80,1,,,,,,,,,,,,,,,,,,,,,,,
,,,,,,,,,,,,,,,,,,,,,,,,,,,,,,,,,,,,,,,,,,,5fd0189eb30e9306837dc340,5fe192008929f0c3944d60f5,2020-12-22_00h29.17.449,FlowerSimilarity_Experiment,2020.1.2,Win32,60,5fe17d4a51f3a9c1a60f9869,,,,,,,,,,,,,,,,,,,9,PF,,7,0.932715,,,,,,,,,,,,,,,,,,,,,,,,,,,,,,,,,,30.60005744,53.09999621,1,0,0,response1disk,5,159,-1.399943042,-3.700004637,1,0,0,rectangle,-1.399943042,-3.700004637,1,0,0,7,1,"[287,127,99,139,210,112,64,117,202,245,50,5,121,4,210,125,323,210,177,80]",-1.399943042,-3.700004637,1,0,0,0,158,158,134,1,,,,,,,,,,,,,,,,,,,,,,,
,,,,,,,,,,,,,,,,,,,,,,,,,,,,,,,,,,,,,,,,,,,5fd0189eb30e9306837dc340,5fe192008929f0c3944d60f5,2020-12-22_00h29.17.449,FlowerSimilarity_Experiment,2020.1.2,Win32,60,5fe17d4a51f3a9c1a60f9869,,,,,,,,,,,,,,,,,,,7,FF,,7,1.01796,,,,,,,,,,,,,,,,,,,,,,,,,,,,,,,,,,24.20000851,64.29999638,1,0,0,response1disk,5,160,-9.399943161,0.299995422,1,0,0,rectangle,-9.399943161,0.299995422,1,0,0,7,5,"[287,127,99,139,210,112,64,117,202,245,50,5,121,4,210,125,323,210,177,80]",-9.399943161,0.299995422,1,0,0,0,159,159,156,1,,,,,,,,,,,,,,,,,,,,,,,
,,,,,,,,,,,,,,,,,,,,,,,,,,,,,,,,,,,,,,,,,,,5fd0189eb30e9306837dc340,5fe192008929f0c3944d60f5,2020-12-22_00h29.17.449,FlowerSimilarity_Experiment,2020.1.2,Win32,60,5fe17d4a51f3a9c1a60f9869,,,,,,,,,,,,,,,,,,,8,PF,,2,1.73603,,,,,,,,,,,,,,,,,,,,,,,,,,,,,,,,,,-70.99999291,-34.9000051,1,0,0,response5disk,5,161,-9.399943161,-7.700004697,1,0,0,rectangle,-9.399943161,-7.700004697,1,0,0,7,5,"[287,127,99,139,210,112,64,117,202,245,50,5,121,4,210,125,323,210,177,80]",-9.399943161,-7.700004697,1,0,0,0,160,160,98,1,,,,,,,,,,,,,,,,,,,,,,,
,,,,,,,,,,,,,,,,,,,,,,,,,,,,,,,,,,,,,,,,,,,5fd0189eb30e9306837dc340,5fe192008929f0c3944d60f5,2020-12-22_00h29.17.449,FlowerSimilarity_Experiment,2020.1.2,Win32,60,5fe17d4a51f3a9c1a60f9869,,,,,,,,,,,,,,,,,,,4,FF,,7,1.17815,,,,,,,,,,,,,,,,,,,,,,,,,,,,,,,,,,25.80000854,49.89999616,1,0,0,response1disk,6,162,-3.799991906,4.299995482,1,0,0,rectangle,-3.799991906,4.299995482,1,0,0,7,4,"[287,127,99,139,210,112,64,117,202,245,50,5,121,4,210,125,323,210,177,80]",-3.799991906,4.299995482,1,0,0,0,161,161,122,1,,,,,,,,,,,,,,,,,,,,,,,
,,,,,,,,,,,,,,,,,,,,,,,,,,,,,,,,,,,,,,,,,,,5fd0189eb30e9306837dc340,5fe192008929f0c3944d60f5,2020-12-22_00h29.17.449,FlowerSimilarity_Experiment,2020.1.2,Win32,60,5fe17d4a51f3a9c1a60f9869,,,,,,,,,,,,,,,,,,,,,,,,,,,,,,,,,,,,,,,,,,,,,,,,,,,,,,,,,,,,,,,,,,,,,,,,,,,,,,,,,,,,,,,,,,,0,0,0,0,1,,,,,,,,,,,,,,,,
,,,,,,,,,,,,,,,,,,,,,,,,,,,,,,,,,,,,,,,,,,,5fd0189eb30e9306837dc340,5fe192008929f0c3944d60f5,2020-12-22_00h29.17.449,FlowerSimilarity_Experiment,2020.1.2,Win32,60,5fe17d4a51f3a9c1a60f9869,,,,,,,,,,,,,,,,,,,3,PF,,6,2.72295,,,,,,,,,,,,,,,,,,,,,,,,,,,,,,,,,,54.60005779,28.29999584,1,0,0,response1disk,2,163,3.400008202,5.899995506,1,0,0,rectangle,3.400008202,5.899995506,1,0,0,7,4,"[287,127,99,139,210,112,64,117,202,245,50,5,121,4,210,125,323,210,177,80]",3.400008202,5.899995506,1,0,0,0,0,0,36,1,,,,,,,,,,,,,,,,,,,,,,,
,,,,,,,,,,,,,,,,,,,,,,,,,,,,,,,,,,,,,,,,,,,5fd0189eb30e9306837dc340,5fe192008929f0c3944d60f5,2020-12-22_00h29.17.449,FlowerSimilarity_Experiment,2020.1.2,Win32,60,5fe17d4a51f3a9c1a60f9869,,,,,,,,,,,,,,,,,,,4,FF,,7,1.08291,,,,,,,,,,,,,,,,,,,,,,,,,,,,,,,,,,32.20000863,68.29999644,1,0,0,response1disk,1,164,-6.999991953,-1.300029016,1,0,0,rectangle,-6.999991953,-1.300029016,1,0,0,7,5,"[287,127,99,139,210,112,64,117,202,245,50,5,121,4,210,125,323,210,177,80]",-6.999991953,-1.300029016,1,0,0,0,1,1,102,1,,,,,,,,,,,,,,,,,,,,,,,
,,,,,,,,,,,,,,,,,,,,,,,,,,,,,,,,,,,,,,,,,,,5fd0189eb30e9306837dc340,5fe192008929f0c3944d60f5,2020-12-22_00h29.17.449,FlowerSimilarity_Experiment,2020.1.2,Win32,60,5fe17d4a51f3a9c1a60f9869,,,,,,,,,,,,,,,,,,,6,PF,,6,1.39512,,,,,,,,,,,,,,,,,,,,,,,,,,,,,,,,,,60.20000905,29.89999586,1,0,0,response1disk,1,165,-6.999991953,5.899995506,1,0,0,rectangle,-6.999991953,5.899995506,1,0,0,7,5,"[287,127,99,139,210,112,64,117,202,245,50,5,121,4,210,125,323,210,177,80]",-6.999991953,5.899995506,1,0,0,0,2,2,46,1,,,,,,,,,,,,,,,,,,,,,,,
,,,,,,,,,,,,,,,,,,,,,,,,,,,,,,,,,,,,,,,,,,,5fd0189eb30e9306837dc340,5fe192008929f0c3944d60f5,2020-12-22_00h29.17.449,FlowerSimilarity_Experiment,2020.1.2,Win32,60,5fe17d4a51f3a9c1a60f9869,,,,,,,,,,,,,,,,,,,2,PF,,7,1.977375,,,,,,,,,,,,,,,,,,,,,,,,,,,,,,,,,,25.00000852,64.29999638,1,0,0,response1disk,6,166,-2.199991882,-4.500004649,1,0,0,rectangle,-2.199991882,-4.500004649,1,0,0,7,7,"[287,127,99,139,210,112,64,117,202,245,50,5,121,4,210,125,323,210,177,80]",-2.199991882,-4.500004649,1,0,0,0,3,3,113,1,,,,,,,,,,,,,,,,,,,,,,,
,,,,,,,,,,,,,,,,,,,,,,,,,,,,,,,,,,,,,,,,,,,5fd0189eb30e9306837dc340,5fe192008929f0c3944d60f5,2020-12-22_00h29.17.449,FlowerSimilarity_Experiment,2020.1.2,Win32,60,5fe17d4a51f3a9c1a60f9869,,,,,,,,,,,,,,,,,,,3,PF,,1,2.301915,,,,,,,,,,,,,,,,,,,,,,,,,,,,,,,,,,-77.399993,41.89999604,1,0,0,response7disk,3,167,5.000008225,7.49999553,1,0,0,rectangle,5.000008225,7.49999553,1,0,0,7,2,"[287,127,99,139,210,112,64,117,202,245,50,5,121,4,210,125,323,210,177,80]",5.000008225,7.49999553,1,0,0,0,4,4,4,1,,,,,,,,,,,,,,,,,,,,,,,
,,,,,,,,,,,,,,,,,,,,,,,,,,,,,,,,,,,,,,,,,,,5fd0189eb30e9306837dc340,5fe192008929f0c3944d60f5,2020-12-22_00h29.17.449,FlowerSimilarity_Experiment,2020.1.2,Win32,60,5fe17d4a51f3a9c1a60f9869,,,,,,,,,,,,,,,,,,,7,PF,,0,1.65072,,,,,,,,,,,,,,,,,,,,,,,,,,,,,,,,,,-44.59999251,59.4999963,1,0,0,response7disk,7,168,-5.399943101,-4.500004649,1,0,0,rectangle,-5.399943101,-4.500004649,1,0,0,7,5,"[287,127,99,139,210,112,64,117,202,245,50,5,121,4,210,125,323,210,177,80]",-5.399943101,-4.500004649,1,0,0,0,5,5,51,1,,,,,,,,,,,,,,,,,,,,,,,
,,,,,,,,,,,,,,,,,,,,,,,,,,,,,,,,,,,,,,,,,,,5fd0189eb30e9306837dc340,5fe192008929f0c3944d60f5,2020-12-22_00h29.17.449,FlowerSimilarity_Experiment,2020.1.2,Win32,60,5fe17d4a51f3a9c1a60f9869,,,,,,,,,,,,,,,,,,,3,FF,,7,1.987125,,,,,,,,,,,,,,,,,,,,,,,,,,,,,,,,,,40.20000875,64.29999638,1,0,0,response1disk,6,169,-3.799991906,4.299995482,1,0,0,rectangle,-3.799991906,4.299995482,1,0,0,7,0,"[287,127,99,139,210,112,64,117,202,245,50,5,121,4,210,125,323,210,177,80]",-3.799991906,4.299995482,1,0,0,0,6,6,95,1,,,,,,,,,,,,,,,,,,,,,,,
,,,,,,,,,,,,,,,,,,,,,,,,,,,,,,,,,,,,,,,,,,,5fd0189eb30e9306837dc340,5fe192008929f0c3944d60f5,2020-12-22_00h29.17.449,FlowerSimilarity_Experiment,2020.1.2,Win32,60,5fe17d4a51f3a9c1a60f9869,,,,,,,,,,,,,,,,,,,5,PF,,4,2.194385,,,,,,,,,,,,,,,,,,,,,,,,,,,,,,,,,,21.80000848,-77.30003015,1,0,0,response3disk,8,170,-2.999991894,-0.50000459,1,0,0,rectangle,-2.999991894,-0.50000459,1,0,0,7,5,"[287,127,99,139,210,112,64,117,202,245,50,5,121,4,210,125,323,210,177,80]",-2.999991894,-0.50000459,1,0,0,0,7,7,149,1,,,,,,,,,,,,,,,,,,,,,,,
,,,,,,,,,,,,,,,,,,,,,,,,,,,,,,,,,,,,,,,,,,,5fd0189eb30e9306837dc340,5fe192008929f0c3944d60f5,2020-12-22_00h29.17.449,FlowerSimilarity_Experiment,2020.1.2,Win32,60,5fe17d4a51f3a9c1a60f9869,,,,,,,,,,,,,,,,,,,6,PF,,4,2.979125,,,,,,,,,,,,,,,,,,,,,,,,,,,,,,,,,,35.40000868,-64.50000554,1,0,0,response3disk,9,171,-1.399943042,-2.100004613,1,0,0,rectangle,-1.399943042,-2.100004613,1,0,0,7,3,"[287,127,99,139,210,112,64,117,202,245,50,5,121,4,210,125,323,210,177,80]",-1.399943042,-2.100004613,1,0,0,0,8,8,45,1,,,,,,,,,,,,,,,,,,,,,,,
,,,,,,,,,,,,,,,,,,,,,,,,,,,,,,,,,,,,,,,,,,,5fd0189eb30e9306837dc340,5fe192008929f0c3944d60f5,2020-12-22_00h29.17.449,FlowerSimilarity_Experiment,2020.1.2,Win32,60,5fe17d4a51f3a9c1a60f9869,,,,,,,,,,,,,,,,,,,5,PF,,7,1.93558,,,,,,,,,,,,,,,,,,,,,,,,,,,,,,,,,,33.00000864,76.29999655,1,0,0,response1disk,3,172,-7.799991965,7.49999553,1,0,0,rectangle,-7.799991965,7.49999553,1,0,0,7,2,"[287,127,99,139,210,112,64,117,202,245,50,5,121,4,210,125,323,210,177,80]",-7.799991965,7.49999553,1,0,0,0,9,9,109,1,,,,,,,,,,,,,,,,,,,,,,,
,,,,,,,,,,,,,,,,,,,,,,,,,,,,,,,,,,,,,,,,,,,5fd0189eb30e9306837dc340,5fe192008929f0c3944d60f5,2020-12-22_00h29.17.449,FlowerSimilarity_Experiment,2020.1.2,Win32,60,5fe17d4a51f3a9c1a60f9869,,,,,,,,,,,,,,,,,,,1,PF,,5,2.158695,,,,,,,,,,,,,,,,,,,,,,,,,,,,,,,,,,65.00000912,-37.30002955,1,0,0,response3disk,9,173,4.200008214,1.899995446,1,0,0,rectangle,4.200008214,1.899995446,1,0,0,7,5,"[287,127,99,139,210,112,64,117,202,245,50,5,121,4,210,125,323,210,177,80]",4.200008214,1.899995446,1,0,0,0,10,10,15,1,,,,,,,,,,,,,,,,,,,,,,,
,,,,,,,,,,,,,,,,,,,,,,,,,,,,,,,,,,,,,,,,,,,5fd0189eb30e9306837dc340,5fe192008929f0c3944d60f5,2020-12-22_00h29.17.449,FlowerSimilarity_Experiment,2020.1.2,Win32,60,5fe17d4a51f3a9c1a60f9869,,,,,,,,,,,,,,,,,,,9,FF,,1,1.594085,,,,,,,,,,,,,,,,,,,,,,,,,,,,,,,,,,-68.59999287,30.69997146,1,0,0,response7disk,9,174,-7.799991965,7.49999553,1,0,0,rectangle,-7.799991965,7.49999553,1,0,0,7,3,"[287,127,99,139,210,112,64,117,202,245,50,5,121,4,210,125,323,210,177,80]",-7.799991965,7.49999553,1,0,0,0,11,11,17,1,,,,,,,,,,,,,,,,,,,,,,,
,,,,,,,,,,,,,,,,,,,,,,,,,,,,,,,,,,,,,,,,,,,5fd0189eb30e9306837dc340,5fe192008929f0c3944d60f5,2020-12-22_00h29.17.449,FlowerSimilarity_Experiment,2020.1.2,Win32,60,5fe17d4a51f3a9c1a60f9869,,,,,,,,,,,,,,,,,,,9,FF,,7,1.10348,,,,,,,,,,,,,,,,,,,,,,,,,,,,,,,,,,37.80000871,74.69999653,1,0,0,response1disk,7,175,-2.999991894,-5.300029075,1,0,0,rectangle,-2.999991894,-5.300029075,1,0,0,7,2,"[287,127,99,139,210,112,64,117,202,245,50,5,121,4,210,125,323,210,177,80]",-2.999991894,-5.300029075,1,0,0,0,12,12,100,1,,,,,,,,,,,,,,,,,,,,,,,
